PE IR                   SPECTRUM    ASCII       PEDS        1.60        
  -1
1012G~1.ASC
22/04/13
15:07:56.00
22/04/13
15:07:56.00
Admin

650.000000
4









SPECTRUM ONE,CPU32 MAIN 00.02.6000 25-JUNE-2003 12:00:00
MIR TGS
MIR
OPTKBR
68128
0.200000

4.000000
STRONG
RATIO
SPECTRUM
MAGNITUDE
UNIVERSAL ATR
DOUBLE

COMBINED


0


#HDR
-1
-1
#GR
CM-1
%T
0.00002384185791015625
0.0
4000.000000
-1.000000
3351
8
97.463292
54.992409
#DATA
4000.000000	96.688213 
3999.000000	96.693574 
3998.000000	96.713154 
3997.000000	96.731397 
3996.000000	96.736198 
3995.000000	96.729432 
3994.000000	96.725306 
3993.000000	96.737904 
3992.000000	96.768542 
3991.000000	96.803626 
3990.000000	96.826055 
3989.000000	96.831250 
3988.000000	96.831877 
3987.000000	96.844198 
3986.000000	96.868866 
3985.000000	96.888467 
3984.000000	96.886277 
3983.000000	96.866037 
3982.000000	96.849008 
3981.000000	96.850880 
3980.000000	96.865056 
3979.000000	96.870382 
3978.000000	96.853967 
3977.000000	96.824022 
3976.000000	96.801075 
3975.000000	96.797325 
3974.000000	96.805039 
3973.000000	96.804800 
3972.000000	96.784994 
3971.000000	96.753055 
3970.000000	96.728397 
3969.000000	96.726013 
3968.000000	96.745870 
3967.000000	96.775314 
3966.000000	96.800319 
3965.000000	96.817421 
3964.000000	96.836959 
3963.000000	96.872463 
3962.000000	96.923213 
3961.000000	96.967728 
3960.000000	96.980211 
3959.000000	96.954856 
3958.000000	96.912386 
3957.000000	96.881812 
3956.000000	96.875233 
3955.000000	96.879272 
3954.000000	96.868926 
3953.000000	96.831420 
3952.000000	96.777341 
3951.000000	96.731506 
3950.000000	96.712630 
3949.000000	96.719886 
3948.000000	96.736618 
3947.000000	96.745095 
3946.000000	96.740276 
3945.000000	96.732128 
3944.000000	96.736752 
3943.000000	96.762509 
3942.000000	96.802055 
3941.000000	96.839134 
3940.000000	96.862064 
3939.000000	96.868526 
3938.000000	96.862295 
3937.000000	96.849129 
3936.000000	96.833306 
3935.000000	96.816421 
3934.000000	96.798357 
3933.000000	96.783108 
3932.000000	96.780013 
3931.000000	96.794907 
3930.000000	96.820776 
3929.000000	96.841484 
3928.000000	96.847120 
3927.000000	96.844099 
3926.000000	96.847480 
3925.000000	96.862375 
3924.000000	96.879426 
3923.000000	96.891789 
3922.000000	96.901620 
3921.000000	96.906406 
3920.000000	96.896222 
3919.000000	96.870883 
3918.000000	96.848868 
3917.000000	96.848859 
3916.000000	96.870938 
3915.000000	96.903783 
3914.000000	96.939213 
3913.000000	96.969356 
3912.000000	96.981156 
3911.000000	96.964127 
3910.000000	96.921175 
3909.000000	96.866899 
3908.000000	96.816304 
3907.000000	96.779879 
3906.000000	96.762812 
3905.000000	96.766680 
3904.000000	96.784686 
3903.000000	96.806480 
3902.000000	96.831282 
3901.000000	96.864817 
3900.000000	96.901759 
3899.000000	96.922976 
3898.000000	96.917043 
3897.000000	96.895226 
3896.000000	96.876462 
3895.000000	96.866254 
3894.000000	96.860924 
3893.000000	96.860510 
3892.000000	96.866959 
3891.000000	96.869212 
3890.000000	96.854188 
3889.000000	96.839087 
3888.000000	96.851746 
3887.000000	96.891322 
3886.000000	96.923440 
3885.000000	96.911780 
3884.000000	96.863207 
3883.000000	96.827138 
3882.000000	96.831102 
3881.000000	96.854284 
3880.000000	96.859879 
3879.000000	96.832389 
3878.000000	96.793853 
3877.000000	96.777104 
3876.000000	96.789305 
3875.000000	96.811646 
3874.000000	96.816002 
3873.000000	96.794117 
3872.000000	96.776220 
3871.000000	96.796751 
3870.000000	96.841084 
3869.000000	96.855255 
3868.000000	96.831533 
3867.000000	96.825398 
3866.000000	96.867704 
3865.000000	96.929055 
3864.000000	96.970769 
3863.000000	96.989556 
3862.000000	97.003317 
3861.000000	97.014657 
3860.000000	97.017704 
3859.000000	97.019564 
3858.000000	97.028817 
3857.000000	97.038286 
3856.000000	97.029257 
3855.000000	97.011813 
3854.000000	97.028326 
3853.000000	97.056970 
3852.000000	97.033540 
3851.000000	96.991034 
3850.000000	96.981417 
3849.000000	96.985042 
3848.000000	96.968595 
3847.000000	96.932762 
3846.000000	96.900512 
3845.000000	96.883411 
3844.000000	96.877201 
3843.000000	96.874850 
3842.000000	96.873751 
3841.000000	96.875031 
3840.000000	96.879111 
3839.000000	96.882615 
3838.000000	96.883322 
3837.000000	96.883441 
3836.000000	96.887399 
3835.000000	96.902134 
3834.000000	96.928911 
3833.000000	96.962731 
3832.000000	96.993746 
3831.000000	97.008105 
3830.000000	97.000436 
3829.000000	96.980900 
3828.000000	96.964101 
3827.000000	96.955026 
3826.000000	96.944892 
3825.000000	96.928046 
3824.000000	96.922224 
3823.000000	96.953539 
3822.000000	97.023895 
3821.000000	97.086481 
3820.000000	97.081077 
3819.000000	97.030978 
3818.000000	97.008385 
3817.000000	97.029423 
3816.000000	97.044684 
3815.000000	97.000416 
3814.000000	96.916080 
3813.000000	96.863930 
3812.000000	96.868021 
3811.000000	96.890212 
3810.000000	96.897985 
3809.000000	96.900129 
3808.000000	96.923228 
3807.000000	96.962838 
3806.000000	96.984090 
3805.000000	96.987168 
3804.000000	97.012563 
3803.000000	97.069853 
3802.000000	97.119246 
3801.000000	97.100202 
3800.000000	96.998436 
3799.000000	96.891035 
3798.000000	96.848625 
3797.000000	96.862038 
3796.000000	96.883877 
3795.000000	96.886195 
3794.000000	96.878122 
3793.000000	96.875816 
3792.000000	96.875134 
3791.000000	96.864819 
3790.000000	96.847935 
3789.000000	96.834279 
3788.000000	96.826080 
3787.000000	96.819683 
3786.000000	96.813724 
3785.000000	96.807253 
3784.000000	96.797513 
3783.000000	96.788883 
3782.000000	96.798355 
3781.000000	96.837338 
3780.000000	96.891997 
3779.000000	96.928307 
3778.000000	96.924766 
3777.000000	96.895615 
3776.000000	96.868876 
3775.000000	96.852677 
3774.000000	96.835439 
3773.000000	96.813623 
3772.000000	96.803722 
3771.000000	96.822114 
3770.000000	96.857787 
3769.000000	96.883057 
3768.000000	96.893936 
3767.000000	96.911996 
3766.000000	96.945365 
3765.000000	96.973474 
3764.000000	96.971670 
3763.000000	96.941847 
3762.000000	96.904842 
3761.000000	96.873519 
3760.000000	96.854658 
3759.000000	96.858648 
3758.000000	96.891009 
3757.000000	96.938841 
3756.000000	96.980360 
3755.000000	97.009766 
3754.000000	97.033582 
3753.000000	97.055218 
3752.000000	97.075344 
3751.000000	97.098140 
3750.000000	97.115386 
3749.000000	97.104335 
3748.000000	97.062337 
3747.000000	97.013457 
3746.000000	96.982488 
3745.000000	96.975592 
3744.000000	96.943926 
3743.000000	96.844670 
3742.000000	96.753942 
3741.000000	96.746250 
3740.000000	96.785342 
3739.000000	96.803570 
3738.000000	96.785567 
3737.000000	96.767354 
3736.000000	96.777935 
3735.000000	96.816176 
3734.000000	96.870136 
3733.000000	96.927162 
3732.000000	96.957875 
3731.000000	96.934752 
3730.000000	96.871889 
3729.000000	96.809801 
3728.000000	96.771439 
3727.000000	96.752138 
3726.000000	96.743591 
3725.000000	96.756757 
3724.000000	96.810627 
3723.000000	96.896148 
3722.000000	96.975126 
3721.000000	97.019393 
3720.000000	97.035823 
3719.000000	97.046006 
3718.000000	97.056386 
3717.000000	97.053416 
3716.000000	97.025620 
3715.000000	96.982632 
3714.000000	96.940449 
3713.000000	96.904849 
3712.000000	96.875121 
3711.000000	96.852995 
3710.000000	96.847463 
3709.000000	96.866272 
3708.000000	96.902210 
3707.000000	96.936016 
3706.000000	96.951935 
3705.000000	96.950298 
3704.000000	96.943723 
3703.000000	96.945084 
3702.000000	96.953525 
3701.000000	96.949265 
3700.000000	96.916953 
3699.000000	96.871454 
3698.000000	96.845071 
3697.000000	96.851702 
3696.000000	96.871437 
3695.000000	96.875783 
3694.000000	96.858994 
3693.000000	96.837304 
3692.000000	96.834565 
3691.000000	96.871281 
3690.000000	96.950269 
3689.000000	97.041297 
3688.000000	97.096045 
3687.000000	97.097406 
3686.000000	97.070083 
3685.000000	97.036445 
3684.000000	96.995651 
3683.000000	96.947418 
3682.000000	96.911787 
3681.000000	96.913478 
3680.000000	96.947662 
3679.000000	96.983779 
3678.000000	97.003210 
3677.000000	97.016868 
3676.000000	97.035969 
3675.000000	97.025750 
3674.000000	96.964481 
3673.000000	96.913186 
3672.000000	96.919963 
3671.000000	96.960714 
3670.000000	96.994058 
3669.000000	96.998630 
3668.000000	96.989933 
3667.000000	96.994807 
3666.000000	97.005708 
3665.000000	97.000619 
3664.000000	96.977287 
3663.000000	96.949704 
3662.000000	96.927796 
3661.000000	96.911146 
3660.000000	96.899113 
3659.000000	96.902670 
3658.000000	96.935813 
3657.000000	96.994292 
3656.000000	97.042564 
3655.000000	97.046405 
3654.000000	97.017733 
3653.000000	96.986741 
3652.000000	96.954727 
3651.000000	96.908144 
3650.000000	96.857955 
3649.000000	96.828751 
3648.000000	96.828740 
3647.000000	96.847995 
3646.000000	96.874012 
3645.000000	96.901636 
3644.000000	96.929294 
3643.000000	96.950614 
3642.000000	96.957925 
3641.000000	96.951343 
3640.000000	96.938099 
3639.000000	96.921158 
3638.000000	96.892558 
3637.000000	96.851921 
3636.000000	96.820857 
3635.000000	96.823051 
3634.000000	96.850832 
3633.000000	96.871152 
3632.000000	96.867869 
3631.000000	96.857642 
3630.000000	96.874851 
3629.000000	96.927747 
3628.000000	96.965982 
3627.000000	96.963124 
3626.000000	96.953661 
3625.000000	96.952028 
3624.000000	96.943193 
3623.000000	96.927024 
3622.000000	96.922206 
3621.000000	96.935662 
3620.000000	96.947242 
3619.000000	96.933655 
3618.000000	96.898554 
3617.000000	96.868978 
3616.000000	96.862473 
3615.000000	96.868416 
3614.000000	96.863832 
3613.000000	96.840581 
3612.000000	96.816432 
3611.000000	96.819137 
3610.000000	96.857793 
3609.000000	96.911362 
3608.000000	96.949640 
3607.000000	96.961340 
3606.000000	96.958810 
3605.000000	96.958910 
3604.000000	96.969150 
3603.000000	96.990814 
3602.000000	97.019083 
3601.000000	97.038934 
3600.000000	97.033274 
3599.000000	97.003054 
3598.000000	96.967173 
3597.000000	96.939235 
3596.000000	96.918026 
3595.000000	96.902522 
3594.000000	96.900738 
3593.000000	96.918686 
3592.000000	96.948783 
3591.000000	96.969848 
3590.000000	96.965019 
3589.000000	96.938757 
3588.000000	96.912410 
3587.000000	96.894963 
3586.000000	96.875827 
3585.000000	96.849320 
3584.000000	96.821879 
3583.000000	96.802604 
3582.000000	96.798689 
3581.000000	96.814447 
3580.000000	96.849099 
3579.000000	96.895600 
3578.000000	96.939266 
3577.000000	96.960684 
3576.000000	96.948717 
3575.000000	96.914119 
3574.000000	96.885510 
3573.000000	96.884074 
3572.000000	96.903143 
3571.000000	96.913678 
3570.000000	96.890773 
3569.000000	96.840771 
3568.000000	96.801935 
3567.000000	96.808137 
3566.000000	96.852059 
3565.000000	96.900452 
3564.000000	96.926529 
3563.000000	96.922000 
3562.000000	96.895215 
3561.000000	96.863523 
3560.000000	96.841860 
3559.000000	96.837665 
3558.000000	96.853817 
3557.000000	96.888470 
3556.000000	96.928851 
3555.000000	96.951588 
3554.000000	96.937414 
3553.000000	96.888208 
3552.000000	96.827709 
3551.000000	96.782681 
3550.000000	96.764841 
3549.000000	96.768716 
3548.000000	96.781795 
3547.000000	96.796906 
3546.000000	96.816109 
3545.000000	96.842416 
3544.000000	96.872299 
3543.000000	96.898710 
3542.000000	96.919106 
3541.000000	96.937367 
3540.000000	96.957302 
3539.000000	96.975194 
3538.000000	96.981281 
3537.000000	96.970912 
3536.000000	96.952581 
3535.000000	96.942140 
3534.000000	96.947702 
3533.000000	96.963434 
3532.000000	96.977467 
3531.000000	96.982843 
3530.000000	96.979122 
3529.000000	96.965912 
3528.000000	96.941683 
3527.000000	96.909640 
3526.000000	96.879305 
3525.000000	96.857269 
3524.000000	96.840094 
3523.000000	96.821626 
3522.000000	96.805274 
3521.000000	96.802402 
3520.000000	96.817653 
3519.000000	96.840459 
3518.000000	96.853444 
3517.000000	96.847840 
3516.000000	96.827101 
3515.000000	96.797980 
3514.000000	96.764964 
3513.000000	96.736996 
3512.000000	96.732118 
3511.000000	96.764119 
3510.000000	96.822984 
3509.000000	96.876339 
3508.000000	96.896683 
3507.000000	96.884006 
3506.000000	96.858453 
3505.000000	96.836425 
3504.000000	96.818570 
3503.000000	96.799564 
3502.000000	96.782869 
3501.000000	96.780231 
3500.000000	96.798507 
3499.000000	96.831930 
3498.000000	96.867428 
3497.000000	96.894222 
3496.000000	96.906868 
3495.000000	96.901804 
3494.000000	96.876043 
3493.000000	96.832872 
3492.000000	96.786823 
3491.000000	96.757731 
3490.000000	96.755956 
3489.000000	96.774238 
3488.000000	96.795448 
3487.000000	96.808066 
3486.000000	96.813127 
3485.000000	96.817091 
3484.000000	96.821036 
3483.000000	96.817543 
3482.000000	96.797546 
3481.000000	96.761263 
3480.000000	96.723316 
3479.000000	96.704299 
3478.000000	96.713921 
3477.000000	96.741937 
3476.000000	96.767704 
3475.000000	96.779335 
3474.000000	96.780852 
3473.000000	96.781100 
3472.000000	96.782032 
3471.000000	96.781704 
3470.000000	96.783496 
3469.000000	96.794383 
3468.000000	96.812657 
3467.000000	96.823051 
3466.000000	96.809333 
3465.000000	96.771303 
3464.000000	96.727581 
3463.000000	96.701539 
3462.000000	96.703437 
3461.000000	96.722816 
3460.000000	96.736497 
3459.000000	96.727891 
3458.000000	96.703060 
3457.000000	96.688331 
3456.000000	96.707684 
3455.000000	96.759434 
3454.000000	96.816961 
3453.000000	96.852965 
3452.000000	96.861465 
3451.000000	96.856754 
3450.000000	96.854202 
3449.000000	96.854977 
3448.000000	96.849739 
3447.000000	96.835953 
3446.000000	96.828003 
3445.000000	96.845401 
3444.000000	96.890016 
3443.000000	96.938494 
3442.000000	96.961583 
3441.000000	96.950377 
3440.000000	96.920260 
3439.000000	96.892128 
3438.000000	96.876530 
3437.000000	96.876004 
3436.000000	96.892134 
3435.000000	96.922479 
3434.000000	96.955101 
3433.000000	96.975863 
3432.000000	96.982094 
3431.000000	96.983062 
3430.000000	96.985319 
3429.000000	96.982612 
3428.000000	96.965029 
3427.000000	96.934358 
3426.000000	96.904904 
3425.000000	96.889130 
3424.000000	96.885911 
3423.000000	96.883921 
3422.000000	96.874688 
3421.000000	96.861908 
3420.000000	96.858375 
3419.000000	96.873153 
3418.000000	96.901584 
3417.000000	96.928846 
3416.000000	96.942713 
3415.000000	96.940652 
3414.000000	96.925017 
3413.000000	96.897514 
3412.000000	96.863357 
3411.000000	96.835932 
3410.000000	96.828348 
3409.000000	96.839743 
3408.000000	96.856319 
3407.000000	96.867347 
3406.000000	96.874222 
3405.000000	96.883214 
3404.000000	96.897207 
3403.000000	96.917679 
3402.000000	96.946218 
3401.000000	96.976877 
3400.000000	96.993282 
3399.000000	96.983633 
3398.000000	96.958595 
3397.000000	96.945127 
3396.000000	96.959070 
3395.000000	96.988537 
3394.000000	97.006402 
3393.000000	96.995087 
3392.000000	96.957845 
3391.000000	96.911415 
3390.000000	96.874142 
3389.000000	96.859330 
3388.000000	96.871025 
3387.000000	96.900140 
3386.000000	96.926091 
3385.000000	96.928682 
3384.000000	96.903177 
3383.000000	96.864666 
3382.000000	96.835908 
3381.000000	96.829068 
3380.000000	96.838326 
3379.000000	96.849558 
3378.000000	96.856421 
3377.000000	96.865426 
3376.000000	96.885607 
3375.000000	96.915208 
3374.000000	96.940720 
3373.000000	96.948593 
3372.000000	96.936836 
3371.000000	96.915571 
3370.000000	96.898554 
3369.000000	96.894252 
3368.000000	96.901463 
3367.000000	96.910374 
3366.000000	96.908892 
3365.000000	96.891990 
3364.000000	96.866537 
3363.000000	96.845502 
3362.000000	96.835611 
3361.000000	96.830691 
3360.000000	96.818316 
3359.000000	96.792954 
3358.000000	96.761959 
3357.000000	96.738713 
3356.000000	96.731608 
3355.000000	96.740862 
3354.000000	96.763725 
3353.000000	96.797733 
3352.000000	96.836980 
3351.000000	96.870018 
3350.000000	96.888070 
3349.000000	96.895388 
3348.000000	96.905431 
3347.000000	96.924408 
3346.000000	96.943588 
3345.000000	96.951227 
3344.000000	96.946726 
3343.000000	96.936949 
3342.000000	96.922431 
3341.000000	96.897338 
3340.000000	96.863856 
3339.000000	96.836385 
3338.000000	96.825794 
3337.000000	96.826457 
3336.000000	96.825769 
3335.000000	96.822325 
3334.000000	96.826304 
3333.000000	96.843500 
3332.000000	96.866879 
3331.000000	96.884374 
3330.000000	96.887741 
3329.000000	96.872310 
3328.000000	96.836930 
3327.000000	96.790869 
3326.000000	96.756020 
3325.000000	96.753633 
3324.000000	96.786921 
3323.000000	96.839313 
3322.000000	96.889120 
3321.000000	96.923019 
3320.000000	96.937300 
3319.000000	96.932948 
3318.000000	96.914041 
3317.000000	96.888788 
3316.000000	96.867315 
3315.000000	96.855900 
3314.000000	96.853290 
3313.000000	96.853044 
3312.000000	96.849513 
3311.000000	96.841762 
3310.000000	96.832732 
3309.000000	96.826438 
3308.000000	96.827205 
3307.000000	96.839862 
3306.000000	96.866398 
3305.000000	96.900187 
3304.000000	96.926309 
3303.000000	96.931624 
3302.000000	96.915109 
3301.000000	96.887157 
3300.000000	96.860657 
3299.000000	96.845864 
3298.000000	96.850402 
3297.000000	96.874930 
3296.000000	96.905108 
3295.000000	96.915910 
3294.000000	96.893679 
3293.000000	96.852995 
3292.000000	96.823711 
3291.000000	96.819303 
3290.000000	96.825157 
3289.000000	96.820719 
3288.000000	96.804640 
3287.000000	96.791620 
3286.000000	96.790681 
3285.000000	96.796901 
3284.000000	96.803424 
3283.000000	96.810415 
3282.000000	96.818190 
3281.000000	96.820424 
3280.000000	96.812091 
3279.000000	96.799562 
3278.000000	96.794698 
3277.000000	96.800371 
3276.000000	96.809018 
3275.000000	96.815935 
3274.000000	96.826339 
3273.000000	96.845404 
3272.000000	96.867129 
3271.000000	96.879358 
3270.000000	96.878343 
3269.000000	96.872873 
3268.000000	96.872695 
3267.000000	96.876532 
3266.000000	96.874186 
3265.000000	96.859120 
3264.000000	96.835825 
3263.000000	96.813175 
3262.000000	96.792512 
3261.000000	96.766636 
3260.000000	96.732368 
3259.000000	96.700375 
3258.000000	96.687991 
3257.000000	96.702374 
3256.000000	96.733992 
3255.000000	96.767076 
3254.000000	96.792189 
3253.000000	96.807205 
3252.000000	96.812064 
3251.000000	96.809135 
3250.000000	96.806568 
3249.000000	96.814259 
3248.000000	96.834753 
3247.000000	96.862265 
3246.000000	96.891766 
3245.000000	96.923782 
3244.000000	96.956888 
3243.000000	96.979882 
3242.000000	96.977505 
3241.000000	96.944511 
3240.000000	96.892128 
3239.000000	96.841174 
3238.000000	96.809873 
3237.000000	96.804593 
3236.000000	96.816765 
3235.000000	96.829183 
3234.000000	96.830251 
3233.000000	96.823315 
3232.000000	96.819350 
3231.000000	96.821809 
3230.000000	96.824278 
3229.000000	96.823509 
3228.000000	96.826978 
3227.000000	96.842104 
3226.000000	96.862772 
3225.000000	96.873028 
3224.000000	96.862802 
3223.000000	96.835524 
3222.000000	96.802130 
3221.000000	96.773476 
3220.000000	96.757903 
3219.000000	96.758203 
3218.000000	96.767210 
3217.000000	96.771513 
3216.000000	96.764861 
3215.000000	96.756329 
3214.000000	96.760130 
3213.000000	96.776290 
3212.000000	96.785610 
3211.000000	96.768340 
3210.000000	96.728678 
3209.000000	96.697466 
3208.000000	96.706377 
3207.000000	96.758060 
3206.000000	96.822506 
3205.000000	96.862494 
3204.000000	96.862065 
3203.000000	96.832572 
3202.000000	96.797269 
3201.000000	96.774441 
3200.000000	96.771865 
3199.000000	96.788850 
3198.000000	96.818734 
3197.000000	96.850880 
3196.000000	96.873967 
3195.000000	96.880749 
3194.000000	96.872792 
3193.000000	96.861777 
3192.000000	96.862976 
3191.000000	96.882793 
3190.000000	96.911309 
3189.000000	96.928743 
3188.000000	96.920235 
3187.000000	96.885176 
3186.000000	96.835581 
3185.000000	96.788307 
3184.000000	96.756268 
3183.000000	96.741702 
3182.000000	96.736882 
3181.000000	96.733728 
3180.000000	96.732570 
3179.000000	96.739399 
3178.000000	96.755843 
3177.000000	96.776310 
3176.000000	96.794696 
3175.000000	96.808387 
3174.000000	96.814461 
3173.000000	96.808057 
3172.000000	96.788394 
3171.000000	96.762306 
3170.000000	96.737600 
3169.000000	96.716154 
3168.000000	96.697887 
3167.000000	96.688221 
3166.000000	96.694747 
3165.000000	96.715807 
3164.000000	96.737541 
3163.000000	96.745100 
3162.000000	96.735462 
3161.000000	96.718395 
3160.000000	96.706652 
3159.000000	96.706621 
3158.000000	96.717444 
3157.000000	96.736778 
3156.000000	96.764483 
3155.000000	96.798495 
3154.000000	96.829064 
3153.000000	96.843189 
3152.000000	96.837685 
3151.000000	96.823318 
3150.000000	96.811387 
3149.000000	96.800198 
3148.000000	96.781420 
3147.000000	96.756933 
3146.000000	96.739852 
3145.000000	96.737816 
3144.000000	96.744545 
3143.000000	96.751694 
3142.000000	96.760288 
3141.000000	96.773440 
3140.000000	96.785034 
3139.000000	96.785850 
3138.000000	96.777663 
3137.000000	96.770908 
3136.000000	96.768667 
3135.000000	96.763430 
3134.000000	96.753091 
3133.000000	96.750243 
3132.000000	96.767058 
3131.000000	96.795391 
3130.000000	96.810580 
3129.000000	96.795714 
3128.000000	96.758267 
3127.000000	96.722854 
3126.000000	96.710138 
3125.000000	96.721427 
3124.000000	96.739602 
3123.000000	96.744154 
3122.000000	96.728144 
3121.000000	96.702421 
3120.000000	96.684619 
3119.000000	96.685627 
3118.000000	96.704884 
3117.000000	96.733095 
3116.000000	96.756682 
3115.000000	96.764410 
3114.000000	96.755501 
3113.000000	96.739889 
3112.000000	96.726744 
3111.000000	96.715525 
3110.000000	96.703527 
3109.000000	96.698420 
3108.000000	96.712570 
3107.000000	96.742519 
3106.000000	96.763455 
3105.000000	96.751639 
3104.000000	96.709784 
3103.000000	96.665150 
3102.000000	96.643739 
3101.000000	96.649616 
3100.000000	96.667952 
3099.000000	96.683166 
3098.000000	96.691725 
3097.000000	96.700224 
3096.000000	96.714715 
3095.000000	96.732759 
3094.000000	96.744821 
3093.000000	96.742360 
3092.000000	96.724685 
3091.000000	96.699893 
3090.000000	96.680120 
3089.000000	96.673215 
3088.000000	96.675562 
3087.000000	96.673263 
3086.000000	96.653307 
3085.000000	96.614781 
3084.000000	96.568636 
3083.000000	96.528307 
3082.000000	96.502748 
3081.000000	96.494902 
3080.000000	96.500221 
3079.000000	96.506849 
3078.000000	96.504883 
3077.000000	96.498586 
3076.000000	96.503144 
3075.000000	96.524629 
3074.000000	96.548781 
3073.000000	96.556683 
3072.000000	96.548970 
3071.000000	96.547062 
3070.000000	96.568461 
3069.000000	96.604830 
3068.000000	96.626103 
3067.000000	96.605632 
3066.000000	96.543373 
3065.000000	96.467264 
3064.000000	96.411541 
3063.000000	96.390820 
3062.000000	96.393911 
3061.000000	96.401215 
3060.000000	96.403786 
3059.000000	96.403816 
3058.000000	96.402650 
3057.000000	96.396416 
3056.000000	96.382832 
3055.000000	96.365390 
3054.000000	96.348947 
3053.000000	96.335894 
3052.000000	96.327702 
3051.000000	96.325566 
3050.000000	96.327447 
3049.000000	96.328041 
3048.000000	96.323616 
3047.000000	96.313850 
3046.000000	96.297814 
3045.000000	96.272469 
3044.000000	96.237570 
3043.000000	96.198575 
3042.000000	96.161492 
3041.000000	96.127225 
3040.000000	96.093352 
3039.000000	96.058548 
3038.000000	96.021365 
3037.000000	95.976193 
3036.000000	95.915603 
3035.000000	95.839284 
3034.000000	95.758696 
3033.000000	95.689841 
3032.000000	95.638821 
3031.000000	95.593993 
3030.000000	95.533973 
3029.000000	95.445034 
3028.000000	95.330065 
3027.000000	95.200272 
3026.000000	95.061097 
3025.000000	94.908872 
3024.000000	94.739336 
3023.000000	94.554280 
3022.000000	94.357997 
3021.000000	94.149474 
3020.000000	93.920191 
3019.000000	93.660705 
3018.000000	93.372227 
3017.000000	93.073674 
3016.000000	92.794208 
3015.000000	92.553255 
3014.000000	92.347946 
3013.000000	92.163139 
3012.000000	91.992908 
3011.000000	91.848340 
3010.000000	91.746507 
3009.000000	91.698730 
3008.000000	91.709243 
3007.000000	91.775808 
3006.000000	91.886623 
3005.000000	92.023382 
3004.000000	92.174453 
3003.000000	92.342170 
3002.000000	92.531866 
3001.000000	92.737199 
3000.000000	92.941884 
2999.000000	93.132965 
2998.000000	93.305082 
2997.000000	93.453598 
2996.000000	93.572157 
2995.000000	93.659296 
2994.000000	93.721534 
2993.000000	93.766139 
2992.000000	93.794541 
2991.000000	93.805906 
2990.000000	93.804728 
2989.000000	93.801139 
2988.000000	93.802452 
2987.000000	93.803954 
2986.000000	93.787532 
2985.000000	93.732420 
2984.000000	93.632976 
2983.000000	93.507743 
2982.000000	93.386539 
2981.000000	93.284042 
2980.000000	93.185377 
2979.000000	93.058915 
2978.000000	92.882111 
2977.000000	92.654671 
2976.000000	92.391123 
2975.000000	92.106342 
2974.000000	91.807212 
2973.000000	91.490812 
2972.000000	91.145694 
2971.000000	90.758126 
2970.000000	90.322381 
2969.000000	89.845299 
2968.000000	89.338384 
2967.000000	88.807376 
2966.000000	88.254194 
2965.000000	87.688804 
2964.000000	87.132518 
2963.000000	86.605476 
2962.000000	86.113500 
2961.000000	85.649708 
2960.000000	85.206332 
2959.000000	84.782033 
2958.000000	84.381298 
2957.000000	84.012504 
2956.000000	83.686619 
2955.000000	83.412869 
2954.000000	83.193387 
2953.000000	83.022955 
2952.000000	82.892440 
2951.000000	82.788947 
2950.000000	82.693650 
2949.000000	82.584557 
2948.000000	82.442780 
2947.000000	82.251619 
2946.000000	81.989175 
2945.000000	81.628749 
2944.000000	81.151439 
2943.000000	80.556355 
2942.000000	79.855879 
2941.000000	79.064266 
2940.000000	78.193327 
2939.000000	77.254361 
2938.000000	76.258573 
2937.000000	75.216745 
2936.000000	74.141815 
2935.000000	73.050171 
2934.000000	71.956700 
2933.000000	70.871170 
2932.000000	69.804483 
2931.000000	68.777657 
2930.000000	67.820443 
2929.000000	66.962394 
2928.000000	66.231024 
2927.000000	65.656753 
2926.000000	65.269814 
2925.000000	65.086624 
2924.000000	65.104315 
2923.000000	65.313464 
2922.000000	65.712870 
2921.000000	66.308173 
2920.000000	67.097916 
2919.000000	68.061593 
2918.000000	69.155007 
2917.000000	70.313420 
2916.000000	71.464935 
2915.000000	72.550947 
2914.000000	73.541254 
2913.000000	74.435696 
2912.000000	75.255390 
2911.000000	76.029358 
2910.000000	76.781179 
2909.000000	77.519718 
2908.000000	78.238770 
2907.000000	78.924479 
2906.000000	79.565512 
2905.000000	80.162469 
2904.000000	80.730357 
2903.000000	81.288121 
2902.000000	81.840796 
2901.000000	82.374079 
2900.000000	82.871086 
2899.000000	83.333187 
2898.000000	83.779599 
2897.000000	84.228210 
2896.000000	84.681702 
2895.000000	85.131496 
2894.000000	85.567606 
2893.000000	85.981736 
2892.000000	86.365917 
2891.000000	86.714452 
2890.000000	87.028548 
2889.000000	87.316645 
2888.000000	87.587105 
2887.000000	87.838391 
2886.000000	88.057953 
2885.000000	88.234682 
2884.000000	88.372256 
2883.000000	88.483638 
2882.000000	88.569049 
2881.000000	88.605359 
2880.000000	88.563234 
2879.000000	88.432033 
2878.000000	88.223039 
2877.000000	87.954861 
2876.000000	87.646754 
2875.000000	87.325766 
2874.000000	87.027224 
2873.000000	86.778122 
2872.000000	86.580373 
2871.000000	86.410452 
2870.000000	86.230911 
2869.000000	86.000888 
2868.000000	85.682558 
2867.000000	85.246131 
2866.000000	84.671976 
2865.000000	83.949792 
2864.000000	83.078971 
2863.000000	82.070948 
2862.000000	80.948967 
2861.000000	79.745202 
2860.000000	78.501507 
2859.000000	77.274952 
2858.000000	76.138789 
2857.000000	75.176531 
2856.000000	74.473178 
2855.000000	74.106879 
2854.000000	74.133299 
2853.000000	74.566297 
2852.000000	75.370791 
2851.000000	76.474791 
2850.000000	77.788251 
2849.000000	79.216366 
2848.000000	80.670910 
2847.000000	82.083646 
2846.000000	83.413547 
2845.000000	84.641510 
2844.000000	85.760271 
2843.000000	86.769125 
2842.000000	87.673315 
2841.000000	88.482442 
2840.000000	89.206392 
2839.000000	89.851737 
2838.000000	90.421641 
2837.000000	90.919841 
2836.000000	91.354576 
2835.000000	91.736830 
2834.000000	92.074731 
2833.000000	92.373368 
2832.000000	92.641634 
2831.000000	92.894140 
2830.000000	93.141020 
2829.000000	93.378167 
2828.000000	93.592109 
2827.000000	93.772904 
2826.000000	93.918957 
2825.000000	94.034722 
2824.000000	94.133020 
2823.000000	94.237256 
2822.000000	94.368954 
2821.000000	94.526544 
2820.000000	94.682896 
2819.000000	94.809330 
2818.000000	94.900880 
2817.000000	94.976880 
2816.000000	95.061435 
2815.000000	95.163820 
2814.000000	95.270679 
2813.000000	95.354015 
2812.000000	95.394167 
2811.000000	95.400965 
2810.000000	95.407822 
2809.000000	95.440353 
2808.000000	95.494703 
2807.000000	95.550692 
2806.000000	95.598256 
2805.000000	95.642622 
2804.000000	95.688974 
2803.000000	95.734591 
2802.000000	95.776478 
2801.000000	95.815923 
2800.000000	95.851776 
2799.000000	95.876893 
2798.000000	95.886262 
2797.000000	95.884554 
2796.000000	95.882335 
2795.000000	95.888237 
2794.000000	95.906121 
2793.000000	95.934637 
2792.000000	95.966188 
2791.000000	95.991397 
2790.000000	96.009663 
2789.000000	96.032331 
2788.000000	96.070390 
2787.000000	96.120760 
2786.000000	96.168934 
2785.000000	96.203656 
2784.000000	96.224328 
2783.000000	96.235501 
2782.000000	96.240592 
2781.000000	96.242639 
2780.000000	96.245903 
2779.000000	96.252949 
2778.000000	96.262451 
2777.000000	96.272466 
2776.000000	96.283962 
2775.000000	96.298738 
2774.000000	96.315990 
2773.000000	96.334158 
2772.000000	96.354777 
2771.000000	96.380013 
2770.000000	96.405495 
2769.000000	96.419682 
2768.000000	96.413623 
2767.000000	96.390524 
2766.000000	96.363505 
2765.000000	96.344726 
2764.000000	96.338494 
2763.000000	96.343544 
2762.000000	96.357345 
2761.000000	96.375237 
2760.000000	96.388093 
2759.000000	96.386519 
2758.000000	96.370212 
2757.000000	96.351250 
2756.000000	96.344645 
2755.000000	96.354537 
2754.000000	96.370642 
2753.000000	96.378779 
2752.000000	96.374466 
2751.000000	96.366156 
2750.000000	96.366364 
2749.000000	96.380397 
2748.000000	96.403075 
2747.000000	96.424766 
2746.000000	96.439441 
2745.000000	96.447087 
2744.000000	96.450271 
2743.000000	96.450793 
2742.000000	96.449825 
2741.000000	96.448199 
2740.000000	96.444134 
2739.000000	96.432821 
2738.000000	96.412290 
2737.000000	96.389154 
2736.000000	96.373589 
2735.000000	96.367003 
2734.000000	96.359103 
2733.000000	96.341431 
2732.000000	96.321284 
2731.000000	96.317329 
2730.000000	96.340760 
2729.000000	96.383299 
2728.000000	96.424360 
2727.000000	96.447749 
2726.000000	96.451640 
2725.000000	96.444983 
2724.000000	96.436610 
2723.000000	96.427893 
2722.000000	96.415135 
2721.000000	96.397674 
2720.000000	96.381747 
2719.000000	96.375979 
2718.000000	96.384385 
2717.000000	96.403563 
2716.000000	96.424225 
2715.000000	96.435776 
2714.000000	96.434001 
2713.000000	96.426886 
2712.000000	96.428664 
2711.000000	96.444255 
2710.000000	96.462638 
2709.000000	96.469583 
2708.000000	96.463503 
2707.000000	96.454000 
2706.000000	96.448079 
2705.000000	96.444906 
2704.000000	96.442119 
2703.000000	96.439824 
2702.000000	96.438439 
2701.000000	96.439090 
2700.000000	96.445491 
2699.000000	96.458126 
2698.000000	96.467158 
2697.000000	96.460561 
2696.000000	96.441264 
2695.000000	96.426970 
2694.000000	96.429271 
2693.000000	96.441693 
2692.000000	96.452675 
2691.000000	96.460957 
2690.000000	96.470062 
2689.000000	96.474859 
2688.000000	96.463987 
2687.000000	96.433599 
2686.000000	96.392222 
2685.000000	96.354359 
2684.000000	96.334408 
2683.000000	96.342074 
2682.000000	96.374954 
2681.000000	96.416133 
2680.000000	96.444951 
2679.000000	96.450749 
2678.000000	96.434683 
2677.000000	96.404361 
2676.000000	96.372895 
2675.000000	96.356677 
2674.000000	96.363059 
2673.000000	96.381322 
2672.000000	96.395169 
2671.000000	96.403567 
2670.000000	96.419367 
2669.000000	96.446783 
2668.000000	96.471324 
2667.000000	96.476931 
2666.000000	96.465057 
2665.000000	96.450832 
2664.000000	96.445179 
2663.000000	96.446971 
2662.000000	96.450111 
2661.000000	96.452373 
2660.000000	96.455906 
2659.000000	96.461592 
2658.000000	96.465707 
2657.000000	96.464530 
2656.000000	96.461627 
2655.000000	96.465207 
2654.000000	96.475197 
2653.000000	96.479039 
2652.000000	96.467545 
2651.000000	96.450236 
2650.000000	96.445268 
2649.000000	96.456132 
2648.000000	96.469561 
2647.000000	96.476430 
2646.000000	96.481942 
2645.000000	96.491221 
2644.000000	96.497821 
2643.000000	96.495219 
2642.000000	96.490118 
2641.000000	96.493569 
2640.000000	96.504069 
2639.000000	96.509627 
2638.000000	96.503930 
2637.000000	96.492220 
2636.000000	96.482691 
2635.000000	96.479377 
2634.000000	96.482902 
2633.000000	96.492119 
2632.000000	96.504640 
2631.000000	96.519009 
2630.000000	96.534554 
2629.000000	96.546456 
2628.000000	96.545938 
2627.000000	96.531665 
2626.000000	96.517382 
2625.000000	96.520596 
2624.000000	96.544858 
2623.000000	96.579122 
2622.000000	96.611995 
2621.000000	96.638441 
2620.000000	96.653837 
2619.000000	96.652172 
2618.000000	96.634023 
2617.000000	96.609324 
2616.000000	96.587748 
2615.000000	96.571272 
2614.000000	96.559419 
2613.000000	96.555714 
2612.000000	96.562934 
2611.000000	96.575623 
2610.000000	96.584827 
2609.000000	96.590495 
2608.000000	96.603190 
2607.000000	96.630618 
2606.000000	96.665667 
2605.000000	96.691504 
2604.000000	96.698058 
2603.000000	96.690619 
2602.000000	96.681987 
2601.000000	96.679417 
2600.000000	96.681078 
2599.000000	96.682049 
2598.000000	96.679101 
2597.000000	96.670323 
2596.000000	96.655446 
2595.000000	96.638313 
2594.000000	96.624742 
2593.000000	96.615270 
2592.000000	96.603680 
2591.000000	96.586275 
2590.000000	96.569588 
2589.000000	96.564534 
2588.000000	96.574727 
2587.000000	96.594564 
2586.000000	96.616840 
2585.000000	96.636941 
2584.000000	96.650262 
2583.000000	96.652210 
2582.000000	96.643913 
2581.000000	96.634340 
2580.000000	96.633397 
2579.000000	96.643864 
2578.000000	96.660899 
2577.000000	96.677458 
2576.000000	96.689687 
2575.000000	96.700048 
2574.000000	96.716502 
2573.000000	96.744791 
2572.000000	96.778080 
2571.000000	96.797381 
2570.000000	96.788126 
2569.000000	96.756892 
2568.000000	96.727196 
2567.000000	96.717104 
2566.000000	96.724178 
2565.000000	96.732916 
2564.000000	96.731755 
2563.000000	96.719461 
2562.000000	96.699857 
2561.000000	96.677640 
2560.000000	96.659295 
2559.000000	96.651994 
2558.000000	96.658252 
2557.000000	96.672573 
2556.000000	96.683722 
2555.000000	96.680494 
2554.000000	96.659877 
2553.000000	96.634589 
2552.000000	96.628711 
2551.000000	96.656423 
2550.000000	96.703668 
2549.000000	96.738636 
2548.000000	96.743603 
2547.000000	96.729895 
2546.000000	96.719240 
2545.000000	96.719613 
2544.000000	96.724820 
2543.000000	96.728877 
2542.000000	96.731162 
2541.000000	96.731738 
2540.000000	96.730505 
2539.000000	96.729351 
2538.000000	96.729488 
2537.000000	96.729744 
2536.000000	96.731972 
2535.000000	96.741691 
2534.000000	96.756232 
2533.000000	96.760565 
2532.000000	96.746910 
2531.000000	96.731804 
2530.000000	96.737813 
2529.000000	96.760969 
2528.000000	96.773328 
2527.000000	96.759148 
2526.000000	96.731696 
2525.000000	96.710805 
2524.000000	96.702084 
2523.000000	96.706087 
2522.000000	96.728993 
2521.000000	96.768323 
2520.000000	96.800499 
2519.000000	96.801533 
2518.000000	96.775598 
2517.000000	96.747815 
2516.000000	96.731894 
2515.000000	96.720143 
2514.000000	96.704726 
2513.000000	96.692441 
2512.000000	96.692857 
2511.000000	96.703447 
2510.000000	96.714201 
2509.000000	96.721067 
2508.000000	96.728889 
2507.000000	96.744094 
2506.000000	96.768164 
2505.000000	96.796278 
2504.000000	96.820685 
2503.000000	96.837325 
2502.000000	96.848907 
2501.000000	96.858790 
2500.000000	96.863665 
2499.000000	96.857657 
2498.000000	96.842484 
2497.000000	96.825990 
2496.000000	96.809638 
2495.000000	96.786497 
2494.000000	96.755902 
2493.000000	96.731438 
2492.000000	96.725884 
2491.000000	96.733704 
2490.000000	96.738684 
2489.000000	96.737349 
2488.000000	96.743949 
2487.000000	96.768851 
2486.000000	96.800606 
2485.000000	96.816204 
2484.000000	96.805792 
2483.000000	96.781318 
2482.000000	96.762365 
2481.000000	96.759553 
2480.000000	96.771784 
2479.000000	96.792897 
2478.000000	96.815822 
2477.000000	96.832426 
2476.000000	96.835479 
2475.000000	96.824266 
2474.000000	96.806808 
2473.000000	96.793324 
2472.000000	96.786877 
2471.000000	96.783401 
2470.000000	96.782688 
2469.000000	96.795028 
2468.000000	96.830273 
2467.000000	96.879731 
2466.000000	96.915826 
2465.000000	96.914932 
2464.000000	96.878884 
2463.000000	96.831377 
2462.000000	96.797011 
2461.000000	96.786849 
2460.000000	96.797771 
2459.000000	96.816900 
2458.000000	96.827954 
2457.000000	96.822471 
2456.000000	96.808081 
2455.000000	96.801796 
2454.000000	96.814893 
2453.000000	96.847290 
2452.000000	96.892249 
2451.000000	96.937173 
2450.000000	96.962016 
2449.000000	96.951157 
2448.000000	96.912105 
2447.000000	96.871751 
2446.000000	96.847810 
2445.000000	96.833253 
2444.000000	96.814354 
2443.000000	96.792529 
2442.000000	96.778325 
2441.000000	96.774079 
2440.000000	96.775991 
2439.000000	96.786895 
2438.000000	96.811565 
2437.000000	96.840492 
2436.000000	96.851569 
2435.000000	96.830331 
2434.000000	96.782130 
2433.000000	96.727466 
2432.000000	96.693913 
2431.000000	96.706229 
2430.000000	96.767987 
2429.000000	96.850093 
2428.000000	96.910133 
2427.000000	96.927564 
2426.000000	96.912883 
2425.000000	96.885338 
2424.000000	96.856987 
2423.000000	96.839366 
2422.000000	96.846097 
2421.000000	96.876505 
2420.000000	96.907451 
2419.000000	96.914234 
2418.000000	96.895205 
2417.000000	96.868478 
2416.000000	96.850223 
2415.000000	96.843860 
2414.000000	96.844827 
2413.000000	96.845632 
2412.000000	96.837472 
2411.000000	96.815151 
2410.000000	96.783167 
2409.000000	96.754840 
2408.000000	96.744240 
2407.000000	96.756131 
2406.000000	96.779281 
2405.000000	96.791584 
2404.000000	96.780457 
2403.000000	96.759162 
2402.000000	96.753904 
2401.000000	96.772426 
2400.000000	96.795079 
2399.000000	96.800585 
2398.000000	96.789288 
2397.000000	96.774714 
2396.000000	96.764724 
2395.000000	96.762248 
2394.000000	96.774261 
2393.000000	96.804285 
2392.000000	96.839570 
2391.000000	96.859438 
2390.000000	96.856288 
2389.000000	96.839148 
2388.000000	96.818909 
2387.000000	96.800125 
2386.000000	96.784854 
2385.000000	96.772566 
2384.000000	96.756698 
2383.000000	96.734410 
2382.000000	96.722326 
2381.000000	96.747860 
2380.000000	96.815052 
2379.000000	96.888906 
2378.000000	96.925579 
2377.000000	96.910715 
2376.000000	96.856993 
2375.000000	96.777696 
2374.000000	96.685905 
2373.000000	96.612106 
2372.000000	96.591575 
2371.000000	96.629346 
2370.000000	96.700758 
2369.000000	96.784867 
2368.000000	96.866102 
2367.000000	96.904194 
2366.000000	96.853127 
2365.000000	96.732417 
2364.000000	96.633856 
2363.000000	96.624663 
2362.000000	96.681314 
2361.000000	96.740079 
2360.000000	96.773935 
2359.000000	96.795192 
2358.000000	96.815726 
2357.000000	96.842495 
2356.000000	96.881444 
2355.000000	96.919431 
2354.000000	96.922674 
2353.000000	96.875218 
2352.000000	96.810345 
2351.000000	96.775638 
2350.000000	96.784715 
2349.000000	96.810882 
2348.000000	96.807058 
2347.000000	96.739954 
2346.000000	96.627732 
2345.000000	96.546235 
2344.000000	96.542820 
2343.000000	96.582264 
2342.000000	96.619774 
2341.000000	96.658763 
2340.000000	96.720134 
2339.000000	96.791079 
2338.000000	96.838937 
2337.000000	96.851841 
2336.000000	96.844555 
2335.000000	96.824927 
2334.000000	96.783151 
2333.000000	96.716062 
2332.000000	96.651846 
2331.000000	96.628335 
2330.000000	96.656925 
2329.000000	96.718327 
2328.000000	96.785948 
2327.000000	96.841931 
2326.000000	96.864779 
2325.000000	96.835837 
2324.000000	96.760397 
2323.000000	96.679339 
2322.000000	96.642840 
2321.000000	96.668602 
2320.000000	96.736363 
2319.000000	96.809645 
2318.000000	96.859382 
2317.000000	96.869523 
2316.000000	96.842055 
2315.000000	96.796791 
2314.000000	96.760930 
2313.000000	96.750417 
2312.000000	96.760817 
2311.000000	96.778685 
2310.000000	96.796222 
2309.000000	96.814616 
2308.000000	96.834914 
2307.000000	96.852836 
2306.000000	96.860850 
2305.000000	96.855619 
2304.000000	96.841027 
2303.000000	96.823548 
2302.000000	96.804698 
2301.000000	96.780194 
2300.000000	96.747921 
2299.000000	96.714937 
2298.000000	96.693682 
2297.000000	96.693227 
2296.000000	96.714713 
2295.000000	96.753733 
2294.000000	96.799778 
2293.000000	96.836359 
2292.000000	96.848193 
2291.000000	96.835098 
2290.000000	96.814957 
2289.000000	96.810482 
2288.000000	96.831484 
2287.000000	96.869256 
2286.000000	96.903213 
2285.000000	96.912163 
2284.000000	96.886461 
2283.000000	96.836313 
2282.000000	96.786583 
2281.000000	96.757219 
2280.000000	96.748550 
2279.000000	96.748800 
2278.000000	96.752224 
2277.000000	96.761057 
2276.000000	96.772766 
2275.000000	96.778713 
2274.000000	96.779782 
2273.000000	96.790999 
2272.000000	96.820335 
2271.000000	96.850770 
2270.000000	96.856191 
2269.000000	96.834127 
2268.000000	96.810267 
2267.000000	96.806474 
2266.000000	96.813617 
2265.000000	96.804710 
2264.000000	96.771886 
2263.000000	96.741134 
2262.000000	96.744972 
2261.000000	96.784116 
2260.000000	96.824079 
2259.000000	96.834347 
2258.000000	96.824486 
2257.000000	96.830087 
2256.000000	96.864156 
2255.000000	96.897159 
2254.000000	96.893820 
2253.000000	96.856992 
2252.000000	96.820984 
2251.000000	96.809452 
2250.000000	96.816838 
2249.000000	96.828357 
2248.000000	96.839834 
2247.000000	96.853804 
2246.000000	96.869079 
2245.000000	96.881275 
2244.000000	96.885303 
2243.000000	96.874885 
2242.000000	96.849915 
2241.000000	96.826265 
2240.000000	96.824375 
2239.000000	96.843173 
2238.000000	96.858582 
2237.000000	96.853047 
2236.000000	96.832698 
2235.000000	96.810486 
2234.000000	96.793692 
2233.000000	96.799338 
2232.000000	96.854290 
2231.000000	96.952517 
2230.000000	97.030199 
2229.000000	97.020821 
2228.000000	96.933204 
2227.000000	96.841829 
2226.000000	96.800625 
2225.000000	96.799605 
2224.000000	96.809690 
2223.000000	96.832543 
2222.000000	96.883961 
2221.000000	96.953532 
2220.000000	97.007943 
2219.000000	97.022922 
2218.000000	96.993055 
2217.000000	96.922903 
2216.000000	96.829891 
2215.000000	96.749685 
2214.000000	96.718579 
2213.000000	96.745786 
2212.000000	96.808203 
2211.000000	96.868264 
2210.000000	96.893161 
2209.000000	96.871633 
2208.000000	96.826606 
2207.000000	96.801040 
2206.000000	96.816085 
2205.000000	96.847916 
2204.000000	96.857503 
2203.000000	96.835396 
2202.000000	96.804074 
2201.000000	96.787762 
2200.000000	96.797667 
2199.000000	96.836189 
2198.000000	96.890558 
2197.000000	96.925484 
2196.000000	96.909333 
2195.000000	96.852283 
2194.000000	96.797959 
2193.000000	96.774154 
2192.000000	96.771309 
2191.000000	96.771593 
2190.000000	96.770546 
2189.000000	96.758506 
2188.000000	96.712428 
2187.000000	96.634262 
2186.000000	96.578177 
2185.000000	96.604729 
2184.000000	96.709052 
2183.000000	96.821894 
2182.000000	96.884116 
2181.000000	96.898801 
2180.000000	96.908403 
2179.000000	96.945659 
2178.000000	97.014184 
2177.000000	97.088706 
2176.000000	97.118059 
2175.000000	97.052041 
2174.000000	96.893154 
2173.000000	96.716882 
2172.000000	96.619805 
2171.000000	96.645404 
2170.000000	96.762820 
2169.000000	96.900174 
2168.000000	96.984043 
2167.000000	96.962021 
2166.000000	96.825761 
2165.000000	96.633668 
2164.000000	96.488697 
2163.000000	96.466431 
2162.000000	96.564587 
2161.000000	96.722619 
2160.000000	96.880622 
2159.000000	97.013009 
2158.000000	97.113020 
2157.000000	97.164326 
2156.000000	97.138035 
2155.000000	97.018112 
2154.000000	96.837202 
2153.000000	96.682959 
2152.000000	96.638262 
2151.000000	96.698830 
2150.000000	96.767121 
2149.000000	96.747854 
2148.000000	96.647727 
2147.000000	96.566644 
2146.000000	96.596856 
2145.000000	96.739719 
2144.000000	96.908323 
2143.000000	96.996594 
2142.000000	96.957287 
2141.000000	96.840294 
2140.000000	96.753212 
2139.000000	96.763318 
2138.000000	96.836976 
2137.000000	96.885257 
2136.000000	96.864441 
2135.000000	96.810531 
2134.000000	96.778279 
2133.000000	96.779766 
2132.000000	96.791937 
2131.000000	96.793964 
2130.000000	96.777447 
2129.000000	96.740995 
2128.000000	96.698520 
2127.000000	96.682842 
2126.000000	96.717523 
2125.000000	96.783844 
2124.000000	96.833224 
2123.000000	96.837543 
2122.000000	96.814647 
2121.000000	96.798952 
2120.000000	96.797719 
2119.000000	96.786863 
2118.000000	96.745789 
2117.000000	96.685290 
2116.000000	96.637741 
2115.000000	96.626135 
2114.000000	96.648690 
2113.000000	96.690109 
2112.000000	96.737958 
2111.000000	96.782920 
2110.000000	96.811187 
2109.000000	96.811223 
2108.000000	96.791480 
2107.000000	96.780295 
2106.000000	96.798646 
2105.000000	96.834657 
2104.000000	96.851387 
2103.000000	96.821949 
2102.000000	96.755999 
2101.000000	96.692409 
2100.000000	96.665629 
2099.000000	96.677697 
2098.000000	96.701780 
2097.000000	96.711255 
2096.000000	96.702843 
2095.000000	96.691478 
2094.000000	96.690336 
2093.000000	96.701838 
2092.000000	96.720806 
2091.000000	96.734977 
2090.000000	96.724593 
2089.000000	96.675006 
2088.000000	96.595705 
2087.000000	96.521326 
2086.000000	96.489872 
2085.000000	96.518520 
2084.000000	96.594408 
2083.000000	96.681291 
2082.000000	96.737673 
2081.000000	96.742753 
2080.000000	96.712019 
2079.000000	96.681022 
2078.000000	96.671295 
2077.000000	96.676928 
2076.000000	96.682056 
2075.000000	96.679612 
2074.000000	96.669730 
2073.000000	96.652300 
2072.000000	96.630663 
2071.000000	96.615168 
2070.000000	96.613098 
2069.000000	96.616442 
2068.000000	96.604847 
2067.000000	96.562693 
2066.000000	96.497179 
2065.000000	96.443666 
2064.000000	96.443131 
2063.000000	96.499594 
2062.000000	96.563031 
2061.000000	96.571574 
2060.000000	96.519597 
2059.000000	96.471155 
2058.000000	96.498131 
2057.000000	96.613851 
2056.000000	96.768440 
2055.000000	96.892961 
2054.000000	96.939306 
2053.000000	96.895535 
2052.000000	96.783894 
2051.000000	96.644818 
2050.000000	96.515847 
2049.000000	96.422385 
2048.000000	96.381610 
2047.000000	96.400847 
2046.000000	96.463972 
2045.000000	96.531550 
2044.000000	96.569644 
2043.000000	96.573217 
2042.000000	96.554217 
2041.000000	96.519960 
2040.000000	96.474520 
2039.000000	96.430028 
2038.000000	96.402656 
2037.000000	96.401556 
2036.000000	96.427689 
2035.000000	96.475811 
2034.000000	96.533068 
2033.000000	96.589467 
2032.000000	96.655807 
2031.000000	96.749015 
2030.000000	96.848229 
2029.000000	96.892891 
2028.000000	96.849981 
2027.000000	96.761404 
2026.000000	96.696904 
2025.000000	96.672226 
2024.000000	96.639644 
2023.000000	96.557912 
2022.000000	96.445590 
2021.000000	96.360038 
2020.000000	96.340234 
2019.000000	96.379299 
2018.000000	96.442089 
2017.000000	96.499113 
2016.000000	96.548794 
2015.000000	96.611780 
2014.000000	96.701872 
2013.000000	96.799337 
2012.000000	96.854030 
2011.000000	96.822896 
2010.000000	96.714354 
2009.000000	96.597122 
2008.000000	96.550046 
2007.000000	96.595370 
2006.000000	96.691677 
2005.000000	96.787628 
2004.000000	96.858856 
2003.000000	96.888689 
2002.000000	96.852224 
2001.000000	96.752824 
2000.000000	96.648930 
1999.000000	96.603774 
1998.000000	96.614463 
1997.000000	96.621429 
1996.000000	96.588135 
1995.000000	96.538423 
1994.000000	96.513565 
1993.000000	96.528722 
1992.000000	96.580521 
1991.000000	96.666774 
1990.000000	96.778632 
1989.000000	96.890542 
1988.000000	96.971588 
1987.000000	96.995406 
1986.000000	96.942873 
1985.000000	96.823724 
1984.000000	96.697095 
1983.000000	96.635181 
1982.000000	96.653950 
1981.000000	96.705460 
1980.000000	96.747190 
1979.000000	96.785483 
1978.000000	96.829398 
1977.000000	96.845075 
1976.000000	96.800680 
1975.000000	96.720827 
1974.000000	96.653213 
1973.000000	96.610315 
1972.000000	96.575204 
1971.000000	96.541168 
1970.000000	96.517673 
1969.000000	96.514361 
1968.000000	96.539412 
1967.000000	96.595078 
1966.000000	96.658430 
1965.000000	96.691074 
1964.000000	96.686653 
1963.000000	96.685172 
1962.000000	96.723620 
1961.000000	96.788084 
1960.000000	96.829083 
1959.000000	96.813238 
1958.000000	96.750139 
1957.000000	96.684298 
1956.000000	96.662928 
1955.000000	96.691187 
1954.000000	96.718526 
1953.000000	96.693665 
1952.000000	96.633385 
1951.000000	96.603183 
1950.000000	96.631243 
1949.000000	96.679653 
1948.000000	96.705549 
1947.000000	96.710465 
1946.000000	96.714150 
1945.000000	96.721304 
1944.000000	96.738041 
1943.000000	96.782343 
1942.000000	96.844891 
1941.000000	96.875097 
1940.000000	96.842135 
1939.000000	96.773108 
1938.000000	96.709804 
1937.000000	96.662241 
1936.000000	96.623807 
1935.000000	96.602701 
1934.000000	96.607294 
1933.000000	96.622532 
1932.000000	96.632546 
1931.000000	96.645069 
1930.000000	96.666280 
1929.000000	96.675653 
1928.000000	96.657425 
1927.000000	96.638216 
1926.000000	96.653865 
1925.000000	96.695851 
1924.000000	96.724380 
1923.000000	96.725982 
1922.000000	96.722325 
1921.000000	96.722149 
1920.000000	96.708869 
1919.000000	96.679328 
1918.000000	96.660895 
1917.000000	96.674880 
1916.000000	96.710952 
1915.000000	96.753082 
1914.000000	96.795817 
1913.000000	96.832116 
1912.000000	96.850517 
1911.000000	96.847730 
1910.000000	96.831012 
1909.000000	96.807535 
1908.000000	96.784509 
1907.000000	96.777633 
1906.000000	96.796591 
1905.000000	96.824683 
1904.000000	96.830884 
1903.000000	96.804495 
1902.000000	96.764534 
1901.000000	96.731464 
1900.000000	96.707914 
1899.000000	96.691541 
1898.000000	96.686149 
1897.000000	96.695240 
1896.000000	96.717391 
1895.000000	96.750357 
1894.000000	96.789792 
1893.000000	96.823436 
1892.000000	96.839083 
1891.000000	96.836516 
1890.000000	96.823761 
1889.000000	96.805428 
1888.000000	96.786258 
1887.000000	96.781440 
1886.000000	96.800440 
1885.000000	96.822863 
1884.000000	96.814306 
1883.000000	96.769304 
1882.000000	96.717910 
1881.000000	96.687168 
1880.000000	96.677477 
1879.000000	96.681970 
1878.000000	96.703602 
1877.000000	96.742965 
1876.000000	96.787753 
1875.000000	96.823084 
1874.000000	96.843006 
1873.000000	96.848527 
1872.000000	96.843357 
1871.000000	96.835574 
1870.000000	96.835362 
1869.000000	96.843199 
1868.000000	96.847459 
1867.000000	96.844528 
1866.000000	96.844166 
1865.000000	96.847530 
1864.000000	96.839603 
1863.000000	96.808811 
1862.000000	96.763920 
1861.000000	96.724942 
1860.000000	96.703651 
1859.000000	96.700598 
1858.000000	96.713597 
1857.000000	96.738505 
1856.000000	96.766230 
1855.000000	96.787076 
1854.000000	96.796300 
1853.000000	96.795004 
1852.000000	96.788799 
1851.000000	96.788418 
1850.000000	96.799779 
1849.000000	96.814275 
1848.000000	96.819095 
1847.000000	96.811046 
1846.000000	96.794160 
1845.000000	96.770814 
1844.000000	96.742846 
1843.000000	96.716672 
1842.000000	96.705333 
1841.000000	96.715864 
1840.000000	96.737449 
1839.000000	96.749945 
1838.000000	96.736553 
1837.000000	96.698717 
1836.000000	96.659818 
1835.000000	96.645142 
1834.000000	96.658030 
1833.000000	96.680894 
1832.000000	96.699785 
1831.000000	96.717837 
1830.000000	96.736215 
1829.000000	96.740182 
1828.000000	96.723813 
1827.000000	96.701108 
1826.000000	96.679414 
1825.000000	96.650632 
1824.000000	96.615838 
1823.000000	96.596115 
1822.000000	96.604813 
1821.000000	96.625440 
1820.000000	96.632884 
1819.000000	96.622570 
1818.000000	96.602694 
1817.000000	96.575519 
1816.000000	96.542537 
1815.000000	96.515672 
1814.000000	96.505679 
1813.000000	96.503468 
1812.000000	96.493126 
1811.000000	96.475292 
1810.000000	96.461064 
1809.000000	96.450473 
1808.000000	96.432418 
1807.000000	96.403700 
1806.000000	96.371783 
1805.000000	96.342382 
1804.000000	96.318207 
1803.000000	96.303667 
1802.000000	96.296490 
1801.000000	96.276464 
1800.000000	96.229155 
1799.000000	96.172274 
1798.000000	96.132947 
1797.000000	96.110470 
1796.000000	96.081057 
1795.000000	96.033293 
1794.000000	95.978711 
1793.000000	95.930052 
1792.000000	95.887169 
1791.000000	95.845341 
1790.000000	95.804143 
1789.000000	95.762193 
1788.000000	95.717605 
1787.000000	95.675524 
1786.000000	95.638641 
1785.000000	95.592147 
1784.000000	95.518415 
1783.000000	95.426584 
1782.000000	95.341602 
1781.000000	95.264401 
1780.000000	95.177323 
1779.000000	95.076184 
1778.000000	94.972779 
1777.000000	94.875476 
1776.000000	94.783316 
1775.000000	94.693935 
1774.000000	94.589558 
1773.000000	94.431183 
1772.000000	94.215521 
1771.000000	94.004323 
1770.000000	93.832161 
1769.000000	93.655432 
1768.000000	93.422125 
1767.000000	93.139229 
1766.000000	92.842142 
1765.000000	92.527014 
1764.000000	92.151575 
1763.000000	91.688235 
1762.000000	91.153928 
1761.000000	90.578854 
1760.000000	89.969123 
1759.000000	89.286937 
1758.000000	88.439983 
1757.000000	87.344883 
1756.000000	86.045757 
1755.000000	84.657224 
1754.000000	83.139043 
1753.000000	81.249127 
1752.000000	78.767233 
1751.000000	75.771115 
1750.000000	72.546921 
1749.000000	69.270487 
1748.000000	66.051388 
1747.000000	63.069804 
1746.000000	60.448685 
1745.000000	58.206973 
1744.000000	56.435289 
1743.000000	55.323888 
1742.000000	54.992409 
1741.000000	55.483354 
1740.000000	56.822009 
1739.000000	58.815108 
1738.000000	61.054184 
1737.000000	63.378359 
1736.000000	66.078333 
1735.000000	69.548319 
1734.000000	73.425832 
1733.000000	76.659366 
1732.000000	79.004819 
1731.000000	80.909043 
1730.000000	82.643525 
1729.000000	84.210597 
1728.000000	85.549098 
1727.000000	86.655436 
1726.000000	87.576707 
1725.000000	88.380712 
1724.000000	89.119333 
1723.000000	89.780894 
1722.000000	90.324827 
1721.000000	90.762060 
1720.000000	91.147705 
1719.000000	91.519809 
1718.000000	91.873864 
1717.000000	92.198042 
1716.000000	92.496330 
1715.000000	92.761389 
1714.000000	92.973140 
1713.000000	93.136053 
1712.000000	93.272467 
1711.000000	93.388937 
1710.000000	93.483598 
1709.000000	93.573437 
1708.000000	93.679442 
1707.000000	93.788842 
1706.000000	93.867135 
1705.000000	93.914177 
1704.000000	93.961598 
1703.000000	94.021255 
1702.000000	94.084975 
1701.000000	94.172722 
1700.000000	94.288208 
1699.000000	94.354268 
1698.000000	94.375917 
1697.000000	94.431577 
1696.000000	94.566678 
1695.000000	94.730941 
1694.000000	94.843412 
1693.000000	94.922913 
1692.000000	95.005579 
1691.000000	95.090175 
1690.000000	95.167287 
1689.000000	95.236749 
1688.000000	95.299065 
1687.000000	95.343180 
1686.000000	95.358669 
1685.000000	95.375637 
1684.000000	95.442429 
1683.000000	95.522058 
1682.000000	95.566496 
1681.000000	95.595052 
1680.000000	95.636292 
1679.000000	95.692613 
1678.000000	95.745296 
1677.000000	95.784342 
1676.000000	95.820919 
1675.000000	95.858053 
1674.000000	95.867919 
1673.000000	95.843828 
1672.000000	95.810280 
1671.000000	95.784509 
1670.000000	95.782261 
1669.000000	95.810483 
1668.000000	95.848695 
1667.000000	95.874474 
1666.000000	95.881250 
1665.000000	95.872602 
1664.000000	95.855800 
1663.000000	95.830477 
1662.000000	95.788851 
1661.000000	95.730786 
1660.000000	95.670263 
1659.000000	95.621262 
1658.000000	95.588849 
1657.000000	95.575587 
1656.000000	95.576016 
1655.000000	95.570606 
1654.000000	95.554504 
1653.000000	95.565911 
1652.000000	95.573492 
1651.000000	95.570247 
1650.000000	95.602718 
1649.000000	95.641205 
1648.000000	95.663585 
1647.000000	95.698857 
1646.000000	95.756145 
1645.000000	95.806700 
1644.000000	95.855021 
1643.000000	95.917683 
1642.000000	95.989792 
1641.000000	96.059198 
1640.000000	96.118616 
1639.000000	96.161563 
1638.000000	96.181991 
1637.000000	96.198582 
1636.000000	96.251202 
1635.000000	96.326821 
1634.000000	96.358200 
1633.000000	96.352111 
1632.000000	96.355258 
1631.000000	96.377514 
1630.000000	96.402036 
1629.000000	96.413319 
1628.000000	96.414919 
1627.000000	96.419894 
1626.000000	96.433468 
1625.000000	96.453627 
1624.000000	96.479820 
1623.000000	96.505073 
1622.000000	96.512487 
1621.000000	96.498663 
1620.000000	96.478149 
1619.000000	96.456531 
1618.000000	96.430097 
1617.000000	96.408084 
1616.000000	96.406370 
1615.000000	96.425973 
1614.000000	96.455967 
1613.000000	96.479186 
1612.000000	96.486423 
1611.000000	96.481487 
1610.000000	96.470766 
1609.000000	96.458366 
1608.000000	96.451136 
1607.000000	96.452938 
1606.000000	96.457269 
1605.000000	96.456280 
1604.000000	96.455234 
1603.000000	96.463557 
1602.000000	96.475483 
1601.000000	96.479031 
1600.000000	96.474959 
1599.000000	96.471931 
1598.000000	96.470071 
1597.000000	96.463461 
1596.000000	96.454841 
1595.000000	96.453695 
1594.000000	96.462240 
1593.000000	96.473564 
1592.000000	96.483213 
1591.000000	96.493788 
1590.000000	96.509505 
1589.000000	96.532265 
1588.000000	96.562324 
1587.000000	96.598607 
1586.000000	96.639602 
1585.000000	96.686220 
1584.000000	96.739591 
1583.000000	96.797435 
1582.000000	96.850904 
1581.000000	96.894317 
1580.000000	96.933882 
1579.000000	96.974534 
1578.000000	97.004914 
1577.000000	97.011278 
1576.000000	96.997627 
1575.000000	96.974745 
1574.000000	96.953420 
1573.000000	96.937553 
1572.000000	96.914989 
1571.000000	96.873817 
1570.000000	96.814145 
1569.000000	96.749337 
1568.000000	96.693709 
1567.000000	96.655746 
1566.000000	96.630783 
1565.000000	96.613681 
1564.000000	96.610900 
1563.000000	96.628383 
1562.000000	96.655171 
1561.000000	96.665340 
1560.000000	96.656865 
1559.000000	96.674847 
1558.000000	96.714853 
1557.000000	96.709601 
1556.000000	96.693687 
1555.000000	96.698231 
1554.000000	96.706731 
1553.000000	96.702430 
1552.000000	96.705476 
1551.000000	96.743069 
1550.000000	96.810047 
1549.000000	96.883323 
1548.000000	96.953579 
1547.000000	97.032379 
1546.000000	97.124239 
1545.000000	97.220413 
1544.000000	97.318233 
1543.000000	97.411967 
1542.000000	97.463292 
1541.000000	97.427760 
1540.000000	97.327798 
1539.000000	97.227676 
1538.000000	97.137998 
1537.000000	97.062201 
1536.000000	96.994952 
1535.000000	96.910257 
1534.000000	96.805194 
1533.000000	96.704638 
1532.000000	96.624371 
1531.000000	96.559178 
1530.000000	96.501638 
1529.000000	96.454625 
1528.000000	96.423287 
1527.000000	96.403030 
1526.000000	96.380002 
1525.000000	96.348448 
1524.000000	96.319694 
1523.000000	96.300324 
1522.000000	96.282760 
1521.000000	96.262815 
1520.000000	96.237449 
1519.000000	96.209942 
1518.000000	96.183715 
1517.000000	96.166241 
1516.000000	96.172255 
1515.000000	96.185921 
1514.000000	96.178848 
1513.000000	96.146288 
1512.000000	96.110371 
1511.000000	96.090927 
1510.000000	96.083588 
1509.000000	96.068361 
1508.000000	96.038338 
1507.000000	96.010761 
1506.000000	95.983938 
1505.000000	95.924625 
1504.000000	95.874233 
1503.000000	95.865902 
1502.000000	95.861835 
1501.000000	95.831739 
1500.000000	95.791402 
1499.000000	95.766827 
1498.000000	95.748941 
1497.000000	95.718982 
1496.000000	95.687370 
1495.000000	95.659773 
1494.000000	95.622923 
1493.000000	95.576736 
1492.000000	95.539328 
1491.000000	95.515462 
1490.000000	95.478872 
1489.000000	95.421482 
1488.000000	95.373926 
1487.000000	95.340852 
1486.000000	95.288679 
1485.000000	95.202069 
1484.000000	95.101884 
1483.000000	95.008298 
1482.000000	94.907868 
1481.000000	94.786914 
1480.000000	94.661931 
1479.000000	94.539238 
1478.000000	94.380404 
1477.000000	94.144092 
1476.000000	93.833633 
1475.000000	93.429812 
1474.000000	92.798995 
1473.000000	91.783980 
1472.000000	90.453161 
1471.000000	89.046342 
1470.000000	87.701779 
1469.000000	86.480615 
1468.000000	85.466939 
1467.000000	84.723040 
1466.000000	84.227624 
1465.000000	83.914900 
1464.000000	83.738226 
1463.000000	83.653386 
1462.000000	83.607550 
1461.000000	83.576266 
1460.000000	83.563258 
1459.000000	83.567625 
1458.000000	83.590345 
1457.000000	83.702791 
1456.000000	83.970207 
1455.000000	84.332349 
1454.000000	84.719493 
1453.000000	85.098213 
1452.000000	85.447980 
1451.000000	85.739529 
1450.000000	85.939517 
1449.000000	86.044049 
1448.000000	86.077421 
1447.000000	86.048493 
1446.000000	85.944788 
1445.000000	85.768550 
1444.000000	85.537100 
1443.000000	85.234490 
1442.000000	84.808723 
1441.000000	84.248176 
1440.000000	83.600647 
1439.000000	82.884404 
1438.000000	82.068878 
1437.000000	81.274558 
1436.000000	80.870188 
1435.000000	81.072712 
1434.000000	81.778343 
1433.000000	82.843213 
1432.000000	84.167326 
1431.000000	85.609837 
1430.000000	86.988270 
1429.000000	88.163344 
1428.000000	89.075522 
1427.000000	89.740722 
1426.000000	90.226965 
1425.000000	90.589964 
1424.000000	90.844578 
1423.000000	91.004264 
1422.000000	91.112679 
1421.000000	91.219780 
1420.000000	91.355928 
1419.000000	91.533006 
1418.000000	91.747336 
1417.000000	91.991979 
1416.000000	92.260065 
1415.000000	92.538846 
1414.000000	92.820866 
1413.000000	93.102396 
1412.000000	93.368373 
1411.000000	93.591894 
1410.000000	93.753817 
1409.000000	93.851661 
1408.000000	93.888450 
1407.000000	93.870658 
1406.000000	93.819551 
1405.000000	93.758235 
1404.000000	93.693237 
1403.000000	93.626146 
1402.000000	93.572575 
1401.000000	93.550739 
1400.000000	93.560100 
1399.000000	93.587870 
1398.000000	93.629276 
1397.000000	93.690224 
1396.000000	93.768702 
1395.000000	93.849603 
1394.000000	93.919715 
1393.000000	93.974172 
1392.000000	94.015607 
1391.000000	94.046476 
1390.000000	94.064532 
1389.000000	94.060875 
1388.000000	94.015770 
1387.000000	93.908091 
1386.000000	93.731048 
1385.000000	93.481296 
1384.000000	93.142400 
1383.000000	92.701957 
1382.000000	92.180364 
1381.000000	91.630621 
1380.000000	91.117802 
1379.000000	90.709823 
1378.000000	90.455233 
1377.000000	90.347751 
1376.000000	90.332027 
1375.000000	90.347457 
1374.000000	90.355251 
1373.000000	90.328947 
1372.000000	90.248514 
1371.000000	90.113299 
1370.000000	89.942704 
1369.000000	89.756715 
1368.000000	89.565534 
1367.000000	89.377192 
1366.000000	89.204587 
1365.000000	89.060239 
1364.000000	88.950853 
1363.000000	88.882997 
1362.000000	88.862761 
1361.000000	88.883726 
1360.000000	88.930045 
1359.000000	88.991735 
1358.000000	89.067722 
1357.000000	89.158032 
1356.000000	89.259822 
1355.000000	89.370616 
1354.000000	89.490310 
1353.000000	89.617644 
1352.000000	89.748633 
1351.000000	89.882173 
1350.000000	90.027097 
1349.000000	90.192478 
1348.000000	90.375048 
1347.000000	90.560384 
1346.000000	90.734550 
1345.000000	90.891598 
1344.000000	91.032156 
1343.000000	91.161072 
1342.000000	91.285080 
1341.000000	91.406737 
1340.000000	91.519305 
1339.000000	91.612385 
1338.000000	91.684051 
1337.000000	91.743185 
1336.000000	91.797891 
1335.000000	91.845235 
1334.000000	91.873884 
1333.000000	91.873392 
1332.000000	91.839861 
1331.000000	91.776739 
1330.000000	91.691888 
1329.000000	91.590999 
1328.000000	91.474115 
1327.000000	91.340170 
1326.000000	91.194053 
1325.000000	91.046028 
1324.000000	90.907213 
1323.000000	90.787342 
1322.000000	90.694190 
1321.000000	90.631968 
1320.000000	90.598519 
1319.000000	90.584748 
1318.000000	90.579460 
1317.000000	90.577754 
1316.000000	90.584106 
1315.000000	90.605698 
1314.000000	90.642102 
1313.000000	90.681735 
1312.000000	90.709082 
1311.000000	90.715921 
1310.000000	90.705429 
1309.000000	90.685187 
1308.000000	90.657452 
1307.000000	90.617947 
1306.000000	90.565847 
1305.000000	90.512085 
1304.000000	90.474395 
1303.000000	90.462026 
1302.000000	90.467360 
1301.000000	90.475126 
1300.000000	90.477719 
1299.000000	90.478743 
1298.000000	90.483797 
1297.000000	90.492913 
1296.000000	90.502231 
1295.000000	90.508780 
1294.000000	90.510668 
1293.000000	90.504642 
1292.000000	90.486334 
1291.000000	90.452460 
1290.000000	90.400621 
1289.000000	90.326055 
1288.000000	90.220176 
1287.000000	90.075288 
1286.000000	89.893041 
1285.000000	89.688689 
1284.000000	89.485658 
1283.000000	89.303076 
1282.000000	89.146366 
1281.000000	89.009797 
1280.000000	88.886464 
1279.000000	88.773802 
1278.000000	88.672254 
1277.000000	88.583728 
1276.000000	88.509623 
1275.000000	88.444729 
1274.000000	88.373949 
1273.000000	88.281545 
1272.000000	88.164842 
1271.000000	88.034078 
1270.000000	87.898103 
1269.000000	87.755439 
1268.000000	87.599997 
1267.000000	87.429236 
1266.000000	87.245483 
1265.000000	87.055611 
1264.000000	86.869786 
1263.000000	86.692435 
1262.000000	86.512881 
1261.000000	86.313864 
1260.000000	86.092286 
1259.000000	85.863044 
1258.000000	85.639271 
1257.000000	85.419484 
1256.000000	85.197679 
1255.000000	84.972370 
1254.000000	84.736666 
1253.000000	84.470850 
1252.000000	84.160282 
1251.000000	83.820449 
1250.000000	83.495484 
1249.000000	83.230471 
1248.000000	83.047079 
1247.000000	82.939469 
1246.000000	82.886578 
1245.000000	82.870801 
1244.000000	82.888675 
1243.000000	82.944343 
1242.000000	83.036868 
1241.000000	83.159078 
1240.000000	83.304849 
1239.000000	83.469209 
1238.000000	83.642924 
1237.000000	83.814859 
1236.000000	83.979724 
1235.000000	84.137912 
1234.000000	84.288943 
1233.000000	84.430419 
1232.000000	84.561237 
1231.000000	84.678692 
1230.000000	84.772887 
1229.000000	84.831215 
1228.000000	84.850609 
1227.000000	84.841814 
1226.000000	84.820220 
1225.000000	84.793616 
1224.000000	84.757017 
1223.000000	84.696188 
1222.000000	84.598374 
1221.000000	84.464069 
1220.000000	84.307718 
1219.000000	84.143958 
1218.000000	83.974585 
1217.000000	83.791996 
1216.000000	83.590866 
1215.000000	83.369250 
1214.000000	83.122598 
1213.000000	82.847641 
1212.000000	82.551775 
1211.000000	82.248361 
1210.000000	81.940955 
1209.000000	81.619700 
1208.000000	81.272079 
1207.000000	80.887586 
1206.000000	80.454813 
1205.000000	79.969325 
1204.000000	79.447572 
1203.000000	78.919965 
1202.000000	78.405641 
1201.000000	77.906115 
1200.000000	77.427575 
1199.000000	76.995902 
1198.000000	76.644976 
1197.000000	76.403278 
1196.000000	76.295356 
1195.000000	76.340340 
1194.000000	76.541415 
1193.000000	76.885001 
1192.000000	77.348383 
1191.000000	77.896109 
1190.000000	78.473396 
1189.000000	79.018467 
1188.000000	79.482207 
1187.000000	79.830177 
1186.000000	80.034395 
1185.000000	80.075782 
1184.000000	79.951779 
1183.000000	79.671853 
1182.000000	79.247117 
1181.000000	78.692951 
1180.000000	78.039329 
1179.000000	77.325078 
1178.000000	76.578648 
1177.000000	75.816292 
1176.000000	75.061501 
1175.000000	74.350879 
1174.000000	73.715683 
1173.000000	73.173388 
1172.000000	72.743322 
1171.000000	72.453234 
1170.000000	72.322317 
1169.000000	72.351151 
1168.000000	72.531721 
1167.000000	72.852605 
1166.000000	73.293536 
1165.000000	73.830858 
1164.000000	74.449161 
1163.000000	75.134741 
1162.000000	75.861764 
1161.000000	76.600910 
1160.000000	77.339719 
1159.000000	78.080814 
1158.000000	78.821909 
1157.000000	79.549170 
1156.000000	80.248043 
1155.000000	80.910416 
1154.000000	81.533481 
1153.000000	82.120216 
1152.000000	82.678826 
1151.000000	83.213943 
1150.000000	83.719040 
1149.000000	84.182113 
1148.000000	84.597217 
1147.000000	84.968041 
1146.000000	85.304605 
1145.000000	85.621148 
1144.000000	85.933885 
1143.000000	86.253909 
1142.000000	86.580729 
1141.000000	86.905857 
1140.000000	87.223968 
1139.000000	87.539472 
1138.000000	87.860781 
1137.000000	88.186588 
1136.000000	88.499006 
1135.000000	88.775468 
1134.000000	89.009354 
1133.000000	89.212255 
1132.000000	89.392011 
1131.000000	89.536408 
1130.000000	89.625705 
1129.000000	89.654240 
1128.000000	89.629828 
1127.000000	89.557359 
1126.000000	89.435986 
1125.000000	89.273611 
1124.000000	89.094944 
1123.000000	88.931599 
1122.000000	88.807612 
1121.000000	88.733873 
1120.000000	88.709576 
1119.000000	88.726657 
1118.000000	88.779383 
1117.000000	88.872331 
1116.000000	89.012215 
1115.000000	89.189725 
1114.000000	89.377979 
1113.000000	89.552448 
1112.000000	89.704500 
1111.000000	89.834226 
1110.000000	89.942385 
1109.000000	90.034807 
1108.000000	90.122664 
1107.000000	90.207469 
1106.000000	90.272422 
1105.000000	90.299108 
1104.000000	90.290096 
1103.000000	90.267723 
1102.000000	90.252522 
1101.000000	90.248581 
1100.000000	90.247679 
1099.000000	90.240196 
1098.000000	90.222980 
1097.000000	90.201725 
1096.000000	90.188108 
1095.000000	90.193900 
1094.000000	90.227981 
1093.000000	90.296364 
1092.000000	90.397510 
1091.000000	90.515706 
1090.000000	90.629015 
1089.000000	90.731454 
1088.000000	90.841141 
1087.000000	90.979076 
1086.000000	91.144417 
1085.000000	91.317967 
1084.000000	91.485420 
1083.000000	91.647739 
1082.000000	91.810357 
1081.000000	91.971499 
1080.000000	92.123618 
1079.000000	92.261153 
1078.000000	92.384320 
1077.000000	92.497511 
1076.000000	92.604788 
1075.000000	92.704875 
1074.000000	92.789932 
1073.000000	92.851100 
1072.000000	92.886461 
1071.000000	92.903478 
1070.000000	92.913743 
1069.000000	92.925738 
1068.000000	92.941623 
1067.000000	92.957497 
1066.000000	92.964609 
1065.000000	92.953545 
1064.000000	92.923086 
1063.000000	92.886687 
1062.000000	92.865323 
1061.000000	92.869149 
1060.000000	92.887520 
1059.000000	92.900157 
1058.000000	92.897592 
1057.000000	92.888387 
1056.000000	92.888815 
1055.000000	92.910605 
1054.000000	92.956157 
1053.000000	93.016339 
1052.000000	93.069953 
1051.000000	93.094803 
1050.000000	93.087222 
1049.000000	93.064230 
1048.000000	93.042374 
1047.000000	93.025072 
1046.000000	93.013465 
1045.000000	93.013188 
1044.000000	93.019517 
1043.000000	93.007415 
1042.000000	92.952947 
1041.000000	92.862615 
1040.000000	92.766960 
1039.000000	92.684141 
1038.000000	92.603468 
1037.000000	92.508299 
1036.000000	92.400007 
1035.000000	92.290209 
1034.000000	92.181510 
1033.000000	92.069045 
1032.000000	91.954540 
1031.000000	91.845526 
1030.000000	91.742457 
1029.000000	91.636667 
1028.000000	91.519495 
1027.000000	91.384813 
1026.000000	91.226124 
1025.000000	91.043165 
1024.000000	90.851513 
1023.000000	90.674078 
1022.000000	90.520189 
1021.000000	90.382849 
1020.000000	90.258907 
1019.000000	90.160288 
1018.000000	90.099722 
1017.000000	90.075302 
1016.000000	90.077031 
1015.000000	90.102048 
1014.000000	90.155312 
1013.000000	90.238089 
1012.000000	90.342223 
1011.000000	90.455886 
1010.000000	90.572390 
1009.000000	90.693408 
1008.000000	90.824390 
1007.000000	90.966807 
1006.000000	91.115189 
1005.000000	91.261289 
1004.000000	91.397980 
1003.000000	91.517722 
1002.000000	91.612346 
1001.000000	91.680233 
1000.000000	91.732231 
999.000000	 91.784455 
998.000000	 91.843045 
997.000000	 91.898364 
996.000000	 91.934703 
995.000000	 91.944070 
994.000000	 91.932735 
993.000000	 91.919247 
992.000000	 91.925762 
991.000000	 91.964309 
990.000000	 92.026765 
989.000000	 92.091291 
988.000000	 92.143342 
987.000000	 92.191238 
986.000000	 92.259618 
985.000000	 92.366482 
984.000000	 92.505752 
983.000000	 92.651350 
982.000000	 92.779026 
981.000000	 92.884797 
980.000000	 92.981204 
979.000000	 93.077530 
978.000000	 93.169093 
977.000000	 93.247660 
976.000000	 93.316117 
975.000000	 93.386387 
974.000000	 93.465378 
973.000000	 93.549392 
972.000000	 93.631574 
971.000000	 93.708364 
970.000000	 93.777939 
969.000000	 93.838721 
968.000000	 93.892661 
967.000000	 93.946294 
966.000000	 94.006049 
965.000000	 94.074577 
964.000000	 94.151124 
963.000000	 94.230379 
962.000000	 94.300834 
961.000000	 94.351996 
960.000000	 94.387025 
959.000000	 94.422345 
958.000000	 94.469983 
957.000000	 94.525535 
956.000000	 94.578397 
955.000000	 94.627061 
954.000000	 94.675889 
953.000000	 94.721822 
952.000000	 94.755706 
951.000000	 94.776249 
950.000000	 94.792688 
949.000000	 94.812614 
948.000000	 94.836192 
947.000000	 94.863426 
946.000000	 94.896261 
945.000000	 94.928947 
944.000000	 94.946315 
943.000000	 94.940384 
942.000000	 94.923969 
941.000000	 94.920049 
940.000000	 94.939178 
939.000000	 94.971111 
938.000000	 94.995649 
937.000000	 94.998890 
936.000000	 94.983425 
935.000000	 94.967349 
934.000000	 94.969006 
933.000000	 94.986396 
932.000000	 94.993921 
931.000000	 94.965486 
930.000000	 94.901305 
929.000000	 94.829284 
928.000000	 94.781451 
927.000000	 94.770212 
926.000000	 94.781656 
925.000000	 94.786145 
924.000000	 94.758439 
923.000000	 94.694519 
922.000000	 94.609899 
921.000000	 94.519526 
920.000000	 94.423326 
919.000000	 94.316300 
918.000000	 94.207960 
917.000000	 94.121909 
916.000000	 94.074184 
915.000000	 94.057966 
914.000000	 94.052651 
913.000000	 94.044794 
912.000000	 94.038042 
911.000000	 94.045909 
910.000000	 94.078481 
909.000000	 94.134772 
908.000000	 94.203831 
907.000000	 94.271144 
906.000000	 94.325665 
905.000000	 94.364259 
904.000000	 94.391647 
903.000000	 94.414980 
902.000000	 94.434998 
901.000000	 94.441468 
900.000000	 94.420680 
899.000000	 94.369876 
898.000000	 94.301918 
897.000000	 94.233160 
896.000000	 94.169123 
895.000000	 94.104185 
894.000000	 94.031101 
893.000000	 93.945508 
892.000000	 93.842777 
891.000000	 93.717377 
890.000000	 93.569480 
889.000000	 93.411613 
888.000000	 93.265718 
887.000000	 93.148658 
886.000000	 93.056610 
885.000000	 92.966446 
884.000000	 92.859239 
883.000000	 92.743274 
882.000000	 92.647934 
881.000000	 92.593496 
880.000000	 92.574862 
879.000000	 92.578403 
878.000000	 92.604465 
877.000000	 92.662306 
876.000000	 92.747260 
875.000000	 92.835603 
874.000000	 92.903967 
873.000000	 92.945552 
872.000000	 92.965595 
871.000000	 92.969048 
870.000000	 92.956192 
869.000000	 92.925679 
868.000000	 92.880140 
867.000000	 92.831760 
866.000000	 92.799985 
865.000000	 92.796346 
864.000000	 92.810636 
863.000000	 92.818822 
862.000000	 92.807302 
861.000000	 92.783939 
860.000000	 92.763039 
859.000000	 92.746747 
858.000000	 92.726017 
857.000000	 92.693627 
856.000000	 92.649507 
855.000000	 92.598003 
854.000000	 92.548532 
853.000000	 92.516225 
852.000000	 92.511117 
851.000000	 92.523312 
850.000000	 92.526370 
849.000000	 92.501180 
848.000000	 92.453189 
847.000000	 92.402964 
846.000000	 92.363822 
845.000000	 92.333925 
844.000000	 92.308634 
843.000000	 92.294867 
842.000000	 92.311152 
841.000000	 92.374734 
840.000000	 92.487752 
839.000000	 92.632645 
838.000000	 92.780342 
837.000000	 92.906021 
836.000000	 93.000065 
835.000000	 93.066569 
834.000000	 93.114884 
833.000000	 93.155594 
832.000000	 93.204006 
831.000000	 93.281270 
830.000000	 93.402192 
829.000000	 93.555805 
828.000000	 93.702580 
827.000000	 93.803904 
826.000000	 93.862419 
825.000000	 93.924463 
824.000000	 94.029916 
823.000000	 94.165626 
822.000000	 94.282351 
821.000000	 94.350542 
820.000000	 94.381627 
819.000000	 94.400339 
818.000000	 94.415055 
817.000000	 94.418004 
816.000000	 94.403408 
815.000000	 94.378037 
814.000000	 94.356593 
813.000000	 94.352616 
812.000000	 94.374371 
811.000000	 94.423499 
810.000000	 94.492242 
809.000000	 94.563231 
808.000000	 94.617524 
807.000000	 94.646269 
806.000000	 94.653800 
805.000000	 94.648108 
804.000000	 94.631998 
803.000000	 94.608325 
802.000000	 94.589703 
801.000000	 94.591893 
800.000000	 94.613230 
799.000000	 94.629540 
798.000000	 94.618759 
797.000000	 94.586945 
796.000000	 94.560629 
795.000000	 94.554307 
794.000000	 94.554294 
793.000000	 94.535997 
792.000000	 94.489129 
791.000000	 94.424069 
790.000000	 94.361467 
789.000000	 94.319104 
788.000000	 94.302163 
787.000000	 94.300304 
786.000000	 94.296920 
785.000000	 94.283533 
784.000000	 94.261004 
783.000000	 94.227897 
782.000000	 94.178589 
781.000000	 94.116347 
780.000000	 94.056026 
779.000000	 94.005640 
778.000000	 93.955320 
777.000000	 93.893217 
776.000000	 93.820449 
775.000000	 93.738130 
774.000000	 93.633643 
773.000000	 93.501296 
772.000000	 93.368624 
771.000000	 93.276319 
770.000000	 93.230707 
769.000000	 93.197796 
768.000000	 93.146954 
767.000000	 93.077889 
766.000000	 92.999862 
765.000000	 92.911627 
764.000000	 92.817370 
763.000000	 92.740422 
762.000000	 92.699578 
761.000000	 92.681988 
760.000000	 92.654981 
759.000000	 92.598036 
758.000000	 92.514313 
757.000000	 92.419784 
756.000000	 92.323097 
755.000000	 92.195308 
754.000000	 91.957377 
753.000000	 91.541990 
752.000000	 91.002906 
751.000000	 90.530503 
750.000000	 90.305941 
749.000000	 90.336940 
748.000000	 90.458072 
747.000000	 90.489366 
746.000000	 90.370705 
745.000000	 90.145716 
744.000000	 89.871552 
743.000000	 89.580881 
742.000000	 89.293891 
741.000000	 89.013584 
740.000000	 88.708754 
739.000000	 88.334174 
738.000000	 87.877008 
737.000000	 87.369865 
736.000000	 86.857580 
735.000000	 86.364499 
734.000000	 85.894484 
733.000000	 85.445978 
732.000000	 85.014774 
731.000000	 84.586331 
730.000000	 84.137074 
729.000000	 83.649681 
728.000000	 83.127782 
727.000000	 82.594144 
726.000000	 82.076693 
725.000000	 81.603326 
724.000000	 81.213304 
723.000000	 80.968302 
722.000000	 80.938909 
721.000000	 81.157661 
720.000000	 81.567671 
719.000000	 82.037811 
718.000000	 82.457703 
717.000000	 82.802199 
716.000000	 83.102120 
715.000000	 83.387512 
714.000000	 83.666386 
713.000000	 83.933582 
712.000000	 84.180224 
711.000000	 84.397191 
710.000000	 84.581964 
709.000000	 84.744027 
708.000000	 84.899169 
707.000000	 85.059176 
706.000000	 85.228088 
705.000000	 85.405738 
704.000000	 85.590507 
703.000000	 85.778344 
702.000000	 85.962767 
701.000000	 86.136668 
700.000000	 86.293522 
699.000000	 86.427421 
698.000000	 86.531239 
697.000000	 86.599001 
696.000000	 86.637990 
695.000000	 86.679810 
694.000000	 86.768925 
693.000000	 86.926291 
692.000000	 87.127176 
691.000000	 87.327796 
690.000000	 87.512209 
689.000000	 87.703055 
688.000000	 87.926997 
687.000000	 88.182611 
686.000000	 88.445060 
685.000000	 88.684159 
684.000000	 88.876060 
683.000000	 89.019789 
682.000000	 89.147978 
681.000000	 89.306111 
680.000000	 89.513603 
679.000000	 89.754350 
678.000000	 90.001507 
677.000000	 90.233091 
676.000000	 90.433817 
675.000000	 90.601916 
674.000000	 90.758216 
673.000000	 90.934364 
672.000000	 91.156416 
671.000000	 91.447625 
670.000000	 91.836738 
669.000000	 92.309576 
668.000000	 92.666563 
667.000000	 92.669788 
666.000000	 92.498035 
665.000000	 92.378439 
664.000000	 92.346423 
663.000000	 92.370181 
662.000000	 92.436899 
661.000000	 92.558183 
660.000000	 92.729119 
659.000000	 92.911871 
658.000000	 93.069860 
657.000000	 93.193539 
656.000000	 93.280373 
655.000000	 93.319997 
654.000000	 93.327363 
653.000000	 93.357183 
652.000000	 93.445405 
651.000000	 93.546342 
650.000000	 93.563491 

