PE IR                   SPECTRUM    ASCII       PEDS        1.60        
  -1
1012D~1.ASC
22/04/14
10:11:32.00
22/04/14
10:11:32.00
Admin

650.000000
4









SPECTRUM ONE,CPU32 MAIN 00.02.6000 25-JUNE-2003 12:00:00
MIR TGS
MIR
OPTKBR
68128
0.200000

4.000000
STRONG
RATIO
SPECTRUM
MAGNITUDE
UNIVERSAL ATR
DOUBLE

COMBINED


0


#HDR
-1
-1
#GR
CM-1
%T
0.00002384185791015625
0.0
4000.000000
-1.000000
3351
8
100.064297
34.965037
#DATA
4000.000000	99.657119  
3999.000000	99.654129  
3998.000000	99.651004  
3997.000000	99.684715  
3996.000000	99.732221  
3995.000000	99.760371  
3994.000000	99.755537  
3993.000000	99.730911  
3992.000000	99.708579  
3991.000000	99.697983  
3990.000000	99.690989  
3989.000000	99.674743  
3988.000000	99.647302  
3987.000000	99.621615  
3986.000000	99.614725  
3985.000000	99.633047  
3984.000000	99.667862  
3983.000000	99.703775  
3982.000000	99.729338  
3981.000000	99.739865  
3980.000000	99.735375  
3979.000000	99.720953  
3978.000000	99.708055  
3977.000000	99.710013  
3976.000000	99.731870  
3975.000000	99.763937  
3974.000000	99.787810  
3973.000000	99.791451  
3972.000000	99.780475  
3971.000000	99.773764  
3970.000000	99.785598  
3969.000000	99.810829  
3968.000000	99.829426  
3967.000000	99.827107  
3966.000000	99.809542  
3965.000000	99.795266  
3964.000000	99.796632  
3963.000000	99.809553  
3962.000000	99.819739  
3961.000000	99.816039  
3960.000000	99.798130  
3959.000000	99.774734  
3958.000000	99.757463  
3957.000000	99.753233  
3956.000000	99.760346  
3955.000000	99.770854  
3954.000000	99.777253  
3953.000000	99.777640  
3952.000000	99.776018  
3951.000000	99.779717  
3950.000000	99.793572  
3949.000000	99.814593  
3948.000000	99.834753  
3947.000000	99.850997  
3946.000000	99.868049  
3945.000000	99.889256  
3944.000000	99.909479  
3943.000000	99.921370  
3942.000000	99.926615  
3941.000000	99.932389  
3940.000000	99.935494  
3939.000000	99.920366  
3938.000000	99.878774  
3937.000000	99.823835  
3936.000000	99.780706  
3935.000000	99.764656  
3934.000000	99.770422  
3933.000000	99.781448  
3932.000000	99.786322  
3931.000000	99.786902  
3930.000000	99.790647  
3929.000000	99.798355  
3928.000000	99.802768  
3927.000000	99.796715  
3926.000000	99.782200  
3925.000000	99.771758  
3924.000000	99.779347  
3923.000000	99.807674  
3922.000000	99.845607  
3921.000000	99.881196  
3920.000000	99.912361  
3919.000000	99.937677  
3918.000000	99.944960  
3917.000000	99.922433  
3916.000000	99.880169  
3915.000000	99.845924  
3914.000000	99.836809  
3913.000000	99.843361  
3912.000000	99.844517  
3911.000000	99.830064  
3910.000000	99.811478  
3909.000000	99.808689  
3908.000000	99.831162  
3907.000000	99.866994  
3906.000000	99.888204  
3905.000000	99.871085  
3904.000000	99.821710  
3903.000000	99.779989  
3902.000000	99.783335  
3901.000000	99.826206  
3900.000000	99.868310  
3899.000000	99.881144  
3898.000000	99.872526  
3897.000000	99.864357  
3896.000000	99.865629  
3895.000000	99.873943  
3894.000000	99.889126  
3893.000000	99.907479  
3892.000000	99.914138  
3891.000000	99.898076  
3890.000000	99.878927  
3889.000000	99.882294  
3888.000000	99.904467  
3887.000000	99.920550  
3886.000000	99.909159  
3885.000000	99.876794  
3884.000000	99.862223  
3883.000000	99.888236  
3882.000000	99.933573  
3881.000000	99.958838  
3880.000000	99.943679  
3879.000000	99.910247  
3878.000000	99.897703  
3877.000000	99.914056  
3876.000000	99.935236  
3875.000000	99.933136  
3874.000000	99.908914  
3873.000000	99.899701  
3872.000000	99.928724  
3871.000000	99.962468  
3870.000000	99.945947  
3869.000000	99.881553  
3868.000000	99.829364  
3867.000000	99.820307  
3866.000000	99.837810  
3865.000000	99.862922  
3864.000000	99.884832  
3863.000000	99.895185  
3862.000000	99.891637  
3861.000000	99.873939  
3860.000000	99.843330  
3859.000000	99.795425  
3858.000000	99.727604  
3857.000000	99.652509  
3856.000000	99.604617  
3855.000000	99.608303  
3854.000000	99.614615  
3853.000000	99.559865  
3852.000000	99.517628  
3851.000000	99.580236  
3850.000000	99.705099  
3849.000000	99.809889  
3848.000000	99.858785  
3847.000000	99.855997  
3846.000000	99.823400  
3845.000000	99.782184  
3844.000000	99.743094  
3843.000000	99.709889  
3842.000000	99.691493  
3841.000000	99.693679  
3840.000000	99.706580  
3839.000000	99.706121  
3838.000000	99.681053  
3837.000000	99.654517  
3836.000000	99.664217  
3835.000000	99.720491  
3834.000000	99.799147  
3833.000000	99.866925  
3832.000000	99.904303  
3831.000000	99.912579  
3830.000000	99.905446  
3829.000000	99.891567  
3828.000000	99.868211  
3827.000000	99.829928  
3826.000000	99.786405  
3825.000000	99.762497  
3824.000000	99.775061  
3823.000000	99.811906  
3822.000000	99.831571  
3821.000000	99.794815  
3820.000000	99.733095  
3819.000000	99.711508  
3818.000000	99.729823  
3817.000000	99.750371  
3816.000000	99.755597  
3815.000000	99.763936  
3814.000000	99.803488  
3813.000000	99.855853  
3812.000000	99.877190  
3811.000000	99.863202  
3810.000000	99.847769  
3809.000000	99.853441  
3808.000000	99.855647  
3807.000000	99.811336  
3806.000000	99.732468  
3805.000000	99.682269  
3804.000000	99.692518  
3803.000000	99.740846  
3802.000000	99.779492  
3801.000000	99.778482  
3800.000000	99.776989  
3799.000000	99.812651  
3798.000000	99.855364  
3797.000000	99.870325  
3796.000000	99.865913  
3795.000000	99.876339  
3794.000000	99.917696  
3793.000000	99.970082  
3792.000000	100.000527 
3791.000000	99.991711  
3790.000000	99.948904  
3789.000000	99.893632  
3788.000000	99.850949  
3787.000000	99.836135  
3786.000000	99.846237  
3785.000000	99.868215  
3784.000000	99.896978  
3783.000000	99.937406  
3782.000000	99.985666  
3781.000000	100.017792 
3780.000000	100.005963 
3779.000000	99.949939  
3778.000000	99.888593  
3777.000000	99.859977  
3776.000000	99.862213  
3775.000000	99.866430  
3774.000000	99.855513  
3773.000000	99.837108  
3772.000000	99.826719  
3771.000000	99.829557  
3770.000000	99.845107  
3769.000000	99.880688  
3768.000000	99.940173  
3767.000000	99.997623  
3766.000000	100.014811 
3765.000000	99.987787  
3764.000000	99.955103  
3763.000000	99.951348  
3762.000000	99.968746  
3761.000000	99.975761  
3760.000000	99.956578  
3759.000000	99.916877  
3758.000000	99.866319  
3757.000000	99.803576  
3756.000000	99.721076  
3755.000000	99.617072  
3754.000000	99.510190  
3753.000000	99.446609  
3752.000000	99.464165  
3751.000000	99.529639  
3750.000000	99.565902  
3749.000000	99.554971  
3748.000000	99.541696  
3747.000000	99.563827  
3746.000000	99.623732  
3745.000000	99.680933  
3744.000000	99.682957  
3743.000000	99.668018  
3742.000000	99.698029  
3741.000000	99.748357  
3740.000000	99.787080  
3739.000000	99.830331  
3738.000000	99.899450  
3737.000000	99.970539  
3736.000000	99.992875  
3735.000000	99.961500  
3734.000000	99.928114  
3733.000000	99.928179  
3732.000000	99.946487  
3731.000000	99.961347  
3730.000000	99.971609  
3729.000000	99.979883  
3728.000000	99.984027  
3727.000000	99.987360  
3726.000000	99.999543  
3725.000000	100.026219 
3724.000000	100.055123 
3723.000000	100.064297 
3722.000000	100.044739 
3721.000000	100.005138 
3720.000000	99.956300  
3719.000000	99.896579  
3718.000000	99.822909  
3717.000000	99.747519  
3716.000000	99.695734  
3715.000000	99.686975  
3714.000000	99.725326  
3713.000000	99.799518  
3712.000000	99.879069  
3711.000000	99.930860  
3710.000000	99.947346  
3709.000000	99.936633  
3708.000000	99.903720  
3707.000000	99.858836  
3706.000000	99.822992  
3705.000000	99.812436  
3704.000000	99.825072  
3703.000000	99.840909  
3702.000000	99.840169  
3701.000000	99.826197  
3700.000000	99.824215  
3699.000000	99.845518  
3698.000000	99.869183  
3697.000000	99.867245  
3696.000000	99.834745  
3695.000000	99.787857  
3694.000000	99.736871  
3693.000000	99.676132  
3692.000000	99.600944  
3691.000000	99.525937  
3690.000000	99.479327  
3689.000000	99.478834  
3688.000000	99.525711  
3687.000000	99.609612  
3686.000000	99.699133  
3685.000000	99.751829  
3684.000000	99.753156  
3683.000000	99.727970  
3682.000000	99.705165  
3681.000000	99.678366  
3680.000000	99.619020  
3679.000000	99.531281  
3678.000000	99.467810  
3677.000000	99.479201  
3676.000000	99.532995  
3675.000000	99.546516  
3674.000000	99.521138  
3673.000000	99.495238  
3672.000000	99.460011  
3671.000000	99.410329  
3670.000000	99.364341  
3669.000000	99.352159  
3668.000000	99.401122  
3667.000000	99.491945  
3666.000000	99.578312  
3665.000000	99.636459  
3664.000000	99.667987  
3663.000000	99.679770  
3662.000000	99.675289  
3661.000000	99.658498  
3660.000000	99.635397  
3659.000000	99.607818  
3658.000000	99.567130  
3657.000000	99.505833  
3656.000000	99.434323  
3655.000000	99.382884  
3654.000000	99.363622  
3653.000000	99.349385  
3652.000000	99.316445  
3651.000000	99.282223  
3650.000000	99.276223  
3649.000000	99.294565  
3648.000000	99.313941  
3647.000000	99.322064  
3646.000000	99.320626  
3645.000000	99.318760  
3644.000000	99.324379  
3643.000000	99.336652  
3642.000000	99.347080  
3641.000000	99.347330  
3640.000000	99.335712  
3639.000000	99.317145  
3638.000000	99.302926  
3637.000000	99.304002  
3636.000000	99.310986  
3635.000000	99.288820  
3634.000000	99.208839  
3633.000000	99.089183  
3632.000000	98.988072  
3631.000000	98.958626  
3630.000000	98.996299  
3629.000000	99.023362  
3628.000000	98.996543  
3627.000000	98.972368  
3626.000000	98.984541  
3625.000000	98.999045  
3624.000000	98.981841  
3623.000000	98.930058  
3622.000000	98.864614  
3621.000000	98.810329  
3620.000000	98.778081  
3619.000000	98.761115  
3618.000000	98.751673  
3617.000000	98.744063  
3616.000000	98.721932  
3615.000000	98.668420  
3614.000000	98.586921  
3613.000000	98.502552  
3612.000000	98.443564  
3611.000000	98.420039  
3610.000000	98.419720  
3609.000000	98.422481  
3608.000000	98.415129  
3607.000000	98.396336  
3606.000000	98.368214  
3605.000000	98.325381  
3604.000000	98.263335  
3603.000000	98.190864  
3602.000000	98.126727  
3601.000000	98.084979  
3600.000000	98.064218  
3599.000000	98.049269  
3598.000000	98.022899  
3597.000000	97.980988  
3596.000000	97.930456  
3595.000000	97.875660  
3594.000000	97.811712  
3593.000000	97.737154  
3592.000000	97.661160  
3591.000000	97.598087  
3590.000000	97.554307  
3589.000000	97.519025  
3588.000000	97.469272  
3587.000000	97.399179  
3586.000000	97.333661  
3585.000000	97.292041  
3584.000000	97.260863  
3583.000000	97.213945  
3582.000000	97.139740  
3581.000000	97.049786  
3580.000000	96.968284  
3579.000000	96.913158  
3578.000000	96.882116  
3577.000000	96.856473  
3576.000000	96.815427  
3575.000000	96.748207  
3574.000000	96.656520  
3573.000000	96.550450  
3572.000000	96.443954  
3571.000000	96.350579  
3570.000000	96.276731  
3569.000000	96.212699  
3568.000000	96.134014  
3567.000000	96.026168  
3566.000000	95.910039  
3565.000000	95.819474  
3564.000000	95.757945  
3563.000000	95.699756  
3562.000000	95.624076  
3561.000000	95.537693  
3560.000000	95.466622  
3559.000000	95.424852  
3558.000000	95.393935  
3557.000000	95.338750  
3556.000000	95.242273  
3555.000000	95.119562  
3554.000000	94.997549  
3553.000000	94.888038  
3552.000000	94.785642  
3551.000000	94.686075  
3550.000000	94.593479  
3549.000000	94.510923  
3548.000000	94.434193  
3547.000000	94.357166  
3546.000000	94.278772  
3545.000000	94.201873  
3544.000000	94.126259  
3543.000000	94.047084  
3542.000000	93.960376  
3541.000000	93.865204  
3540.000000	93.760478  
3539.000000	93.643797  
3538.000000	93.516613  
3537.000000	93.387606  
3536.000000	93.266536  
3535.000000	93.156390  
3534.000000	93.053742  
3533.000000	92.955677  
3532.000000	92.860155  
3531.000000	92.759974  
3530.000000	92.643338  
3529.000000	92.507980  
3528.000000	92.371270  
3527.000000	92.257468  
3526.000000	92.172390  
3525.000000	92.095690  
3524.000000	92.000088  
3523.000000	91.873752  
3522.000000	91.722312  
3521.000000	91.555353  
3520.000000	91.378595  
3519.000000	91.198002  
3518.000000	91.023367  
3517.000000	90.864336  
3516.000000	90.724974  
3515.000000	90.603359  
3514.000000	90.492967  
3513.000000	90.382843  
3512.000000	90.260059  
3511.000000	90.119038  
3510.000000	89.969217  
3509.000000	89.829964  
3508.000000	89.713907  
3507.000000	89.613859  
3506.000000	89.504443  
3505.000000	89.357870  
3504.000000	89.165459  
3503.000000	88.949616  
3502.000000	88.750376  
3501.000000	88.592054  
3500.000000	88.462828  
3499.000000	88.329880  
3498.000000	88.174189  
3497.000000	88.008808  
3496.000000	87.860729  
3495.000000	87.737302  
3494.000000	87.615244  
3493.000000	87.463688  
3492.000000	87.273868  
3491.000000	87.066079  
3490.000000	86.869996  
3489.000000	86.699275  
3488.000000	86.542873  
3487.000000	86.377948  
3486.000000	86.190022  
3485.000000	85.981560  
3484.000000	85.765945  
3483.000000	85.556995  
3482.000000	85.362941  
3481.000000	85.185451  
3480.000000	85.019550  
3479.000000	84.855216  
3478.000000	84.682618  
3477.000000	84.497248  
3476.000000	84.299914  
3475.000000	84.093734  
3474.000000	83.884568  
3473.000000	83.683437  
3472.000000	83.502343  
3471.000000	83.342276  
3470.000000	83.186361  
3469.000000	83.009906  
3468.000000	82.802356  
3467.000000	82.580191  
3466.000000	82.374788  
3465.000000	82.204852  
3464.000000	82.060126  
3463.000000	81.912846  
3462.000000	81.743858  
3461.000000	81.555831  
3460.000000	81.363639  
3459.000000	81.178249  
3458.000000	81.002393  
3457.000000	80.835392  
3456.000000	80.675108  
3455.000000	80.516456  
3454.000000	80.353529  
3453.000000	80.185542  
3452.000000	80.018120  
3451.000000	79.857658  
3450.000000	79.705670  
3449.000000	79.559181  
3448.000000	79.414233  
3447.000000	79.267643  
3446.000000	79.117776  
3445.000000	78.966486  
3444.000000	78.820505  
3443.000000	78.687790  
3442.000000	78.568706  
3441.000000	78.451797  
3440.000000	78.322269  
3439.000000	78.176326  
3438.000000	78.024928  
3437.000000	77.881116  
3436.000000	77.745937  
3435.000000	77.610028  
3434.000000	77.467201  
3433.000000	77.322552  
3432.000000	77.186951  
3431.000000	77.067346  
3430.000000	76.961848  
3429.000000	76.859229  
3428.000000	76.741893  
3427.000000	76.595534  
3426.000000	76.421640  
3425.000000	76.239259  
3424.000000	76.070953  
3423.000000	75.927566  
3422.000000	75.807325  
3421.000000	75.704540  
3420.000000	75.613071  
3419.000000	75.522724  
3418.000000	75.419360  
3417.000000	75.292208  
3416.000000	75.140681  
3415.000000	74.974505  
3414.000000	74.807537  
3413.000000	74.647316  
3412.000000	74.486996  
3411.000000	74.311140  
3410.000000	74.115782  
3409.000000	73.920593  
3408.000000	73.752937  
3407.000000	73.618428  
3406.000000	73.495068  
3405.000000	73.359446  
3404.000000	73.212562  
3403.000000	73.074625  
3402.000000	72.959163  
3401.000000	72.859355  
3400.000000	72.757819  
3399.000000	72.643215  
3398.000000	72.515987  
3397.000000	72.382436  
3396.000000	72.247137  
3395.000000	72.111309  
3394.000000	71.976195  
3393.000000	71.845315  
3392.000000	71.722410  
3391.000000	71.608792  
3390.000000	71.503963  
3389.000000	71.406539  
3388.000000	71.311660  
3387.000000	71.209079  
3386.000000	71.089020  
3385.000000	70.952791  
3384.000000	70.815252  
3383.000000	70.694275  
3382.000000	70.596334  
3381.000000	70.511056  
3380.000000	70.419061  
3379.000000	70.307617  
3378.000000	70.181404  
3377.000000	70.057523  
3376.000000	69.949377  
3375.000000	69.857149  
3374.000000	69.774073  
3373.000000	69.695728  
3372.000000	69.618119  
3371.000000	69.531298  
3370.000000	69.423895  
3369.000000	69.294798  
3368.000000	69.154956  
3367.000000	69.017250  
3366.000000	68.889629  
3365.000000	68.777855  
3364.000000	68.687504  
3363.000000	68.619167  
3362.000000	68.564814  
3361.000000	68.511768  
3360.000000	68.449511  
3359.000000	68.373476  
3358.000000	68.286127  
3357.000000	68.195189  
3356.000000	68.107620  
3355.000000	68.024409  
3354.000000	67.943680  
3353.000000	67.867974  
3352.000000	67.804332  
3351.000000	67.757258  
3350.000000	67.725013  
3349.000000	67.701450  
3348.000000	67.676534  
3347.000000	67.637140  
3346.000000	67.575951  
3345.000000	67.501486  
3344.000000	67.431920  
3343.000000	67.375426  
3342.000000	67.323178  
3341.000000	67.266069  
3340.000000	67.211519  
3339.000000	67.176087  
3338.000000	67.163884  
3337.000000	67.158333  
3336.000000	67.135097  
3335.000000	67.081248  
3334.000000	67.004546  
3333.000000	66.928153  
3332.000000	66.874381  
3331.000000	66.848086  
3330.000000	66.835079  
3329.000000	66.818825  
3328.000000	66.797624  
3327.000000	66.782743  
3326.000000	66.781012  
3325.000000	66.784134  
3324.000000	66.776730  
3323.000000	66.752578  
3322.000000	66.720529  
3321.000000	66.694328  
3320.000000	66.678215  
3319.000000	66.664333  
3318.000000	66.644215  
3317.000000	66.619433  
3316.000000	66.598440  
3315.000000	66.586125  
3314.000000	66.581338  
3313.000000	66.583257  
3312.000000	66.593536  
3311.000000	66.611062  
3310.000000	66.630539  
3309.000000	66.649278  
3308.000000	66.670716  
3307.000000	66.697783  
3306.000000	66.726317  
3305.000000	66.748447  
3304.000000	66.759878  
3303.000000	66.761576  
3302.000000	66.757939  
3301.000000	66.756283  
3300.000000	66.764149  
3299.000000	66.782602  
3298.000000	66.804268  
3297.000000	66.821893  
3296.000000	66.837473  
3295.000000	66.860058  
3294.000000	66.896740  
3293.000000	66.948684  
3292.000000	67.012117  
3291.000000	67.077572  
3290.000000	67.129960  
3289.000000	67.156757  
3288.000000	67.159566  
3287.000000	67.155499  
3286.000000	67.165399  
3285.000000	67.200583  
3284.000000	67.258859  
3283.000000	67.329388  
3282.000000	67.400939  
3281.000000	67.468142  
3280.000000	67.531503  
3279.000000	67.591964  
3278.000000	67.647460  
3277.000000	67.696376  
3276.000000	67.742393  
3275.000000	67.792594  
3274.000000	67.850678  
3273.000000	67.914141  
3272.000000	67.977656  
3271.000000	68.036999  
3270.000000	68.090411  
3269.000000	68.139512  
3268.000000	68.190154  
3267.000000	68.250495  
3266.000000	68.326254  
3265.000000	68.417091  
3264.000000	68.516311  
3263.000000	68.613573  
3262.000000	68.701012  
3261.000000	68.780690  
3260.000000	68.865644  
3259.000000	68.968863  
3258.000000	69.087881  
3257.000000	69.201381  
3256.000000	69.284572  
3255.000000	69.330349  
3254.000000	69.356505  
3253.000000	69.393199  
3252.000000	69.463336  
3251.000000	69.572097  
3250.000000	69.709252  
3249.000000	69.856811  
3248.000000	69.995732  
3247.000000	70.112393  
3246.000000	70.205458  
3245.000000	70.287473  
3244.000000	70.376499  
3243.000000	70.483998  
3242.000000	70.610209  
3241.000000	70.748262  
3240.000000	70.889090  
3239.000000	71.023560  
3238.000000	71.145156  
3237.000000	71.253591  
3236.000000	71.354595  
3235.000000	71.455420  
3234.000000	71.561907  
3233.000000	71.678802  
3232.000000	71.808476  
3231.000000	71.947763  
3230.000000	72.089369  
3229.000000	72.228115  
3228.000000	72.362656  
3227.000000	72.489946  
3226.000000	72.603416  
3225.000000	72.701327  
3224.000000	72.793845  
3223.000000	72.896750  
3222.000000	73.019021  
3221.000000	73.159516  
3220.000000	73.312500  
3219.000000	73.470204  
3218.000000	73.621158  
3217.000000	73.754006  
3216.000000	73.867622  
3215.000000	73.974793  
3214.000000	74.092618  
3213.000000	74.229966  
3212.000000	74.384856  
3211.000000	74.550491  
3210.000000	74.720159  
3209.000000	74.887648  
3208.000000	75.047300  
3207.000000	75.195875  
3206.000000	75.333756  
3205.000000	75.463681  
3204.000000	75.589093  
3203.000000	75.714722  
3202.000000	75.847867  
3201.000000	75.995083  
3200.000000	76.153780  
3199.000000	76.308189  
3198.000000	76.440096  
3197.000000	76.548469  
3196.000000	76.656333  
3195.000000	76.793158  
3194.000000	76.969212  
3193.000000	77.168823  
3192.000000	77.368023  
3191.000000	77.555485  
3190.000000	77.735125  
3189.000000	77.911891  
3188.000000	78.079835  
3187.000000	78.226291  
3186.000000	78.347418  
3185.000000	78.457521  
3184.000000	78.580031  
3183.000000	78.727434  
3182.000000	78.890684  
3181.000000	79.049064  
3180.000000	79.189440  
3179.000000	79.315544  
3178.000000	79.441750  
3177.000000	79.581528  
3176.000000	79.739981  
3175.000000	79.911073  
3174.000000	80.079241  
3173.000000	80.228224  
3172.000000	80.353724  
3171.000000	80.467864  
3170.000000	80.589784  
3169.000000	80.732244  
3168.000000	80.896667  
3167.000000	81.076429  
3166.000000	81.260179  
3165.000000	81.433337  
3164.000000	81.583062  
3163.000000	81.707035  
3162.000000	81.817940  
3161.000000	81.936980  
3160.000000	82.080030  
3159.000000	82.247383  
3158.000000	82.426028  
3157.000000	82.602888  
3156.000000	82.776185  
3155.000000	82.952500  
3154.000000	83.132842  
3153.000000	83.305131  
3152.000000	83.453553  
3151.000000	83.574403  
3150.000000	83.679926  
3149.000000	83.786593  
3148.000000	83.901736  
3147.000000	84.021398  
3146.000000	84.138595  
3145.000000	84.252009  
3144.000000	84.366735  
3143.000000	84.486913  
3142.000000	84.608686  
3141.000000	84.723378  
3140.000000	84.829576  
3139.000000	84.939533  
3138.000000	85.069071  
3137.000000	85.220414  
3136.000000	85.378079  
3135.000000	85.523315  
3134.000000	85.650427  
3133.000000	85.767383  
3132.000000	85.882866  
3131.000000	85.996320  
3130.000000	86.100602  
3129.000000	86.191769  
3128.000000	86.275082  
3127.000000	86.361979  
3126.000000	86.460973  
3125.000000	86.570750  
3124.000000	86.682270  
3123.000000	86.787409  
3122.000000	86.884554  
3121.000000	86.975825  
3120.000000	87.061492  
3119.000000	87.140001  
3118.000000	87.212898  
3117.000000	87.286582  
3116.000000	87.367032  
3115.000000	87.452803  
3114.000000	87.534159  
3113.000000	87.600803  
3112.000000	87.652877  
3111.000000	87.704844  
3110.000000	87.774711  
3109.000000	87.865713  
3108.000000	87.960398  
3107.000000	88.037391  
3106.000000	88.093775  
3105.000000	88.146576  
3104.000000	88.211816  
3103.000000	88.287330  
3102.000000	88.358481  
3101.000000	88.415420  
3100.000000	88.460009  
3099.000000	88.499551  
3098.000000	88.540633  
3097.000000	88.588094  
3096.000000	88.643190  
3095.000000	88.701014  
3094.000000	88.753968  
3093.000000	88.798896  
3092.000000	88.837886  
3091.000000	88.873591  
3090.000000	88.909418  
3089.000000	88.953670  
3088.000000	89.014682  
3087.000000	89.087910  
3086.000000	89.155171  
3085.000000	89.203434  
3084.000000	89.239931  
3083.000000	89.281605  
3082.000000	89.332879  
3081.000000	89.381423  
3080.000000	89.415085  
3079.000000	89.435961  
3078.000000	89.456663  
3077.000000	89.488187  
3076.000000	89.532464  
3075.000000	89.581973  
3074.000000	89.625371  
3073.000000	89.658213  
3072.000000	89.689989  
3071.000000	89.736315  
3070.000000	89.801677  
3069.000000	89.872899  
3068.000000	89.931132  
3067.000000	89.967454  
3066.000000	89.985858  
3065.000000	89.995966  
3064.000000	90.006653  
3063.000000	90.022898  
3062.000000	90.043162  
3061.000000	90.060340  
3060.000000	90.069604  
3059.000000	90.076434  
3058.000000	90.094162  
3057.000000	90.131256  
3056.000000	90.181044  
3055.000000	90.224589  
3054.000000	90.243900  
3053.000000	90.233084  
3052.000000	90.198963  
3051.000000	90.153986  
3050.000000	90.109782  
3049.000000	90.074409  
3048.000000	90.049303  
3047.000000	90.025523  
3046.000000	89.986353  
3045.000000	89.918107  
3044.000000	89.818239  
3043.000000	89.691451  
3042.000000	89.541331  
3041.000000	89.370880  
3040.000000	89.189580  
3039.000000	89.012193  
3038.000000	88.845698  
3037.000000	88.678986  
3036.000000	88.489116  
3035.000000	88.261348  
3034.000000	88.006743  
3033.000000	87.761632  
3032.000000	87.565692  
3031.000000	87.435707  
3030.000000	87.360832  
3029.000000	87.323441  
3028.000000	87.318452  
3027.000000	87.347252  
3026.000000	87.400124  
3025.000000	87.456888  
3024.000000	87.504147  
3023.000000	87.538932  
3022.000000	87.551992  
3021.000000	87.521484  
3020.000000	87.435072  
3019.000000	87.313796  
3018.000000	87.204234  
3017.000000	87.146677  
3016.000000	87.153399  
3015.000000	87.210864  
3014.000000	87.292350  
3013.000000	87.368380  
3012.000000	87.416012  
3011.000000	87.426435  
3010.000000	87.404894  
3009.000000	87.363900  
3008.000000	87.318075  
3007.000000	87.282996  
3006.000000	87.271434  
3005.000000	87.285045  
3004.000000	87.310847  
3003.000000	87.331660  
3002.000000	87.344399  
3001.000000	87.366711  
3000.000000	87.419966  
2999.000000	87.502958  
2998.000000	87.587228  
2997.000000	87.643291  
2996.000000	87.668231  
2995.000000	87.681542  
2994.000000	87.697594  
2993.000000	87.712397  
2992.000000	87.717292  
2991.000000	87.713488  
2990.000000	87.707100  
2989.000000	87.697955  
2988.000000	87.681108  
2987.000000	87.655309  
2986.000000	87.623789  
2985.000000	87.589345  
2984.000000	87.552853  
2983.000000	87.512758  
2982.000000	87.460248  
2981.000000	87.376581  
2980.000000	87.239943  
2979.000000	87.035205  
2978.000000	86.753016  
2977.000000	86.374098  
2976.000000	85.847408  
2975.000000	85.089549  
2974.000000	84.044340  
2973.000000	82.794829  
2972.000000	81.624983  
2971.000000	80.911049  
2970.000000	80.875797  
2969.000000	81.415004  
2968.000000	82.173276  
2967.000000	82.799940  
2966.000000	83.144267  
2965.000000	83.240625  
2964.000000	83.175269  
2963.000000	82.999432  
2962.000000	82.734374  
2961.000000	82.403728  
2960.000000	82.040834  
2959.000000	81.678284  
2958.000000	81.336988  
2957.000000	81.019430  
2956.000000	80.712042  
2955.000000	80.400106  
2954.000000	80.081733  
2953.000000	79.766228  
2952.000000	79.464320  
2951.000000	79.184855  
2950.000000	78.934703  
2949.000000	78.713187  
2948.000000	78.509047  
2947.000000	78.309937  
2946.000000	78.113238  
2945.000000	77.922662  
2944.000000	77.739544  
2943.000000	77.565774  
2942.000000	77.410911  
2941.000000	77.285128  
2940.000000	77.185986  
2939.000000	77.102539  
2938.000000	77.032049  
2937.000000	76.979276  
2936.000000	76.935139  
2935.000000	76.869612  
2934.000000	76.757906  
2933.000000	76.609100  
2932.000000	76.460173  
2931.000000	76.343198  
2930.000000	76.265383  
2929.000000	76.219388  
2928.000000	76.205132  
2927.000000	76.237065  
2926.000000	76.332176  
2925.000000	76.494359  
2924.000000	76.711480  
2923.000000	76.966950  
2922.000000	77.252196  
2921.000000	77.566582  
2920.000000	77.907559  
2919.000000	78.265601  
2918.000000	78.629651  
2917.000000	78.992743  
2916.000000	79.348556  
2915.000000	79.686174  
2914.000000	79.995480  
2913.000000	80.279166  
2912.000000	80.553586  
2911.000000	80.833125  
2910.000000	81.116494  
2909.000000	81.392382  
2908.000000	81.656027  
2907.000000	81.913342  
2906.000000	82.168115  
2905.000000	82.412266  
2904.000000	82.633318  
2903.000000	82.827267  
2902.000000	82.999032  
2901.000000	83.152520  
2900.000000	83.285900  
2899.000000	83.396824  
2898.000000	83.487820  
2897.000000	83.565659  
2896.000000	83.636887  
2895.000000	83.703646  
2894.000000	83.761341  
2893.000000	83.800535  
2892.000000	83.813201  
2891.000000	83.797935  
2890.000000	83.760053  
2889.000000	83.709898  
2888.000000	83.662262  
2887.000000	83.632036  
2886.000000	83.623627  
2885.000000	83.625028  
2884.000000	83.617745  
2883.000000	83.593973  
2882.000000	83.561454  
2881.000000	83.531703  
2880.000000	83.508140  
2879.000000	83.487399  
2878.000000	83.469237  
2877.000000	83.462182  
2876.000000	83.478460  
2875.000000	83.522719  
2874.000000	83.586679  
2873.000000	83.658835  
2872.000000	83.739598  
2871.000000	83.839810  
2870.000000	83.959795  
2869.000000	84.078213  
2868.000000	84.172610  
2867.000000	84.246966  
2866.000000	84.325395  
2865.000000	84.417032  
2864.000000	84.499869  
2863.000000	84.543794  
2862.000000	84.539477  
2861.000000	84.500536  
2860.000000	84.449506  
2859.000000	84.410758  
2858.000000	84.406308  
2857.000000	84.445753  
2856.000000	84.522594  
2855.000000	84.628263  
2854.000000	84.766975  
2853.000000	84.950664  
2852.000000	85.181828  
2851.000000	85.445214  
2850.000000	85.712167  
2849.000000	85.949918  
2848.000000	86.135444  
2847.000000	86.270409  
2846.000000	86.379187  
2845.000000	86.483045  
2844.000000	86.577499  
2843.000000	86.641342  
2842.000000	86.665203  
2841.000000	86.662356  
2840.000000	86.651539  
2839.000000	86.638651  
2838.000000	86.618704  
2837.000000	86.589761  
2836.000000	86.561483  
2835.000000	86.553197  
2834.000000	86.584305  
2833.000000	86.660936  
2832.000000	86.768990  
2831.000000	86.884290  
2830.000000	86.993429  
2829.000000	87.104145  
2828.000000	87.235632  
2827.000000	87.401877  
2826.000000	87.604217  
2825.000000	87.834248  
2824.000000	88.079588  
2823.000000	88.328907  
2822.000000	88.575524  
2821.000000	88.818089  
2820.000000	89.057971  
2819.000000	89.296009  
2818.000000	89.530110  
2817.000000	89.754068  
2816.000000	89.960374  
2815.000000	90.147916  
2814.000000	90.326832  
2813.000000	90.511415  
2812.000000	90.705392  
2811.000000	90.895130  
2810.000000	91.058429  
2809.000000	91.180302  
2808.000000	91.263728  
2807.000000	91.329792  
2806.000000	91.407045  
2805.000000	91.513996  
2804.000000	91.646977  
2803.000000	91.785714  
2802.000000	91.911945  
2801.000000	92.021436  
2800.000000	92.119719  
2799.000000	92.212370  
2798.000000	92.302740  
2797.000000	92.393935  
2796.000000	92.486522  
2795.000000	92.574934  
2794.000000	92.650704  
2793.000000	92.710402  
2792.000000	92.758836  
2791.000000	92.805092  
2790.000000	92.857150  
2789.000000	92.918884  
2788.000000	92.989133  
2787.000000	93.063704  
2786.000000	93.140076  
2785.000000	93.219857  
2784.000000	93.305113  
2783.000000	93.393197  
2782.000000	93.477300  
2781.000000	93.551733  
2780.000000	93.615485  
2779.000000	93.671918  
2778.000000	93.726905  
2777.000000	93.785806  
2776.000000	93.849438  
2775.000000	93.913490  
2774.000000	93.973937  
2773.000000	94.031834  
2772.000000	94.090000  
2771.000000	94.146165  
2770.000000	94.193287  
2769.000000	94.227419  
2768.000000	94.253012  
2767.000000	94.280854  
2766.000000	94.322800  
2765.000000	94.386268  
2764.000000	94.468186  
2763.000000	94.553239  
2762.000000	94.622988  
2761.000000	94.669685  
2760.000000	94.699870  
2759.000000	94.724637  
2758.000000	94.750313  
2757.000000	94.778639  
2756.000000	94.809908  
2755.000000	94.842975  
2754.000000	94.877091  
2753.000000	94.917711  
2752.000000	94.975672  
2751.000000	95.054477  
2750.000000	95.140346  
2749.000000	95.210497  
2748.000000	95.251577  
2747.000000	95.267257  
2746.000000	95.270846  
2745.000000	95.275839  
2744.000000	95.291731  
2743.000000	95.321082  
2742.000000	95.357688  
2741.000000	95.391986  
2740.000000	95.420453  
2739.000000	95.446896  
2738.000000	95.474190  
2737.000000	95.500063  
2736.000000	95.523783  
2735.000000	95.552044  
2734.000000	95.592509  
2733.000000	95.642428  
2732.000000	95.688189  
2731.000000	95.717483  
2730.000000	95.730627  
2729.000000	95.740114  
2728.000000	95.760327  
2727.000000	95.796904  
2726.000000	95.843083  
2725.000000	95.884918  
2724.000000	95.911273  
2723.000000	95.921029  
2722.000000	95.922489  
2721.000000	95.926905  
2720.000000	95.942573  
2719.000000	95.973180  
2718.000000	96.017878  
2717.000000	96.069720  
2716.000000	96.115175  
2715.000000	96.141046  
2714.000000	96.146700  
2713.000000	96.147840  
2712.000000	96.162708  
2711.000000	96.193925  
2710.000000	96.228595  
2709.000000	96.256958  
2708.000000	96.284066  
2707.000000	96.318770  
2706.000000	96.357526  
2705.000000	96.387406  
2704.000000	96.402612  
2703.000000	96.409607  
2702.000000	96.416221  
2701.000000	96.424129  
2700.000000	96.434193  
2699.000000	96.450655  
2698.000000	96.474439  
2697.000000	96.497533  
2696.000000	96.510484  
2695.000000	96.513504  
2694.000000	96.515273  
2693.000000	96.522448  
2692.000000	96.535169  
2691.000000	96.552354  
2690.000000	96.575968  
2689.000000	96.607587  
2688.000000	96.643545  
2687.000000	96.676419  
2686.000000	96.701250  
2685.000000	96.718897  
2684.000000	96.733018  
2683.000000	96.745250  
2682.000000	96.755046  
2681.000000	96.763576  
2680.000000	96.774235  
2679.000000	96.786870  
2678.000000	96.794175  
2677.000000	96.788557  
2676.000000	96.773143  
2675.000000	96.762524  
2674.000000	96.770794  
2673.000000	96.799338  
2672.000000	96.835208  
2671.000000	96.859648  
2670.000000	96.860560  
2669.000000	96.841868  
2668.000000	96.821004  
2667.000000	96.812991  
2666.000000	96.816814  
2665.000000	96.822010  
2664.000000	96.827741  
2663.000000	96.846240  
2662.000000	96.883284  
2661.000000	96.924134  
2660.000000	96.948388  
2659.000000	96.954845  
2658.000000	96.961436  
2657.000000	96.980205  
2656.000000	97.002024  
2655.000000	97.010073  
2654.000000	97.001800  
2653.000000	96.991438  
2652.000000	96.993263  
2651.000000	97.007592  
2650.000000	97.023067  
2649.000000	97.029425  
2648.000000	97.026729  
2647.000000	97.023291  
2646.000000	97.026446  
2645.000000	97.036887  
2644.000000	97.051727  
2643.000000	97.069287  
2642.000000	97.087171  
2641.000000	97.097878  
2640.000000	97.093110  
2639.000000	97.075289  
2638.000000	97.060418  
2637.000000	97.064781  
2636.000000	97.089760  
2635.000000	97.122758  
2634.000000	97.151416  
2633.000000	97.172556  
2632.000000	97.187267  
2631.000000	97.193039  
2630.000000	97.185408  
2629.000000	97.165510  
2628.000000	97.141753  
2627.000000	97.123805  
2626.000000	97.118031  
2625.000000	97.128568  
2624.000000	97.157625  
2623.000000	97.200776  
2622.000000	97.244154  
2621.000000	97.271277  
2620.000000	97.274904  
2619.000000	97.262282  
2618.000000	97.249803  
2617.000000	97.252570  
2616.000000	97.275005  
2615.000000	97.307146  
2614.000000	97.331146  
2613.000000	97.335789  
2612.000000	97.325649  
2611.000000	97.314367  
2610.000000	97.311078  
2609.000000	97.317600  
2608.000000	97.336232  
2607.000000	97.371087  
2606.000000	97.417758  
2605.000000	97.458056  
2604.000000	97.472210  
2603.000000	97.455703  
2602.000000	97.421103  
2601.000000	97.385569  
2600.000000	97.359885  
2599.000000	97.346862  
2598.000000	97.343799  
2597.000000	97.344441  
2596.000000	97.342288  
2595.000000	97.335492  
2594.000000	97.328425  
2593.000000	97.327033  
2592.000000	97.332201  
2591.000000	97.338160  
2590.000000	97.338240  
2589.000000	97.332476  
2588.000000	97.328313  
2587.000000	97.332280  
2586.000000	97.341366  
2585.000000	97.344570  
2584.000000	97.333624  
2583.000000	97.311262  
2582.000000	97.289146  
2581.000000	97.279231  
2580.000000	97.286799  
2579.000000	97.308788  
2578.000000	97.336107  
2577.000000	97.357922  
2576.000000	97.367207  
2575.000000	97.366535  
2574.000000	97.369956  
2573.000000	97.394947  
2572.000000	97.446337  
2571.000000	97.508073  
2570.000000	97.556070  
2569.000000	97.580059  
2568.000000	97.587335  
2567.000000	97.585529  
2566.000000	97.573249  
2565.000000	97.553294  
2564.000000	97.541596  
2563.000000	97.548360  
2562.000000	97.558063  
2561.000000	97.547566  
2560.000000	97.524375  
2559.000000	97.526908  
2558.000000	97.577380  
2557.000000	97.648057  
2556.000000	97.687354  
2555.000000	97.673065  
2554.000000	97.628820  
2553.000000	97.593033  
2552.000000	97.584496  
2551.000000	97.597758  
2550.000000	97.618431  
2549.000000	97.634660  
2548.000000	97.639228  
2547.000000	97.630696  
2546.000000	97.616273  
2545.000000	97.609700  
2544.000000	97.620918  
2543.000000	97.647036  
2542.000000	97.676274  
2541.000000	97.700281  
2540.000000	97.717270  
2539.000000	97.722805  
2538.000000	97.708076  
2537.000000	97.675847  
2536.000000	97.650535  
2535.000000	97.658037  
2534.000000	97.694655  
2533.000000	97.727453  
2532.000000	97.730064  
2531.000000	97.710616  
2530.000000	97.699990  
2529.000000	97.718898  
2528.000000	97.761069  
2527.000000	97.803799  
2526.000000	97.828868  
2525.000000	97.832969  
2524.000000	97.820143  
2523.000000	97.787971  
2522.000000	97.729254  
2521.000000	97.652450  
2520.000000	97.592173  
2519.000000	97.585493  
2518.000000	97.635920  
2517.000000	97.708979  
2516.000000	97.764682  
2515.000000	97.788235  
2514.000000	97.791146  
2513.000000	97.793716  
2512.000000	97.807918  
2511.000000	97.826965  
2510.000000	97.829972  
2509.000000	97.807337  
2508.000000	97.782131  
2507.000000	97.791903  
2506.000000	97.844716  
2505.000000	97.907196  
2504.000000	97.943268  
2503.000000	97.951245  
2502.000000	97.951989  
2501.000000	97.953065  
2500.000000	97.940584  
2499.000000	97.901596  
2498.000000	97.842019  
2497.000000	97.784005  
2496.000000	97.753045  
2495.000000	97.762783  
2494.000000	97.802197  
2493.000000	97.840126  
2492.000000	97.852129  
2491.000000	97.843527  
2490.000000	97.841646  
2489.000000	97.868300  
2488.000000	97.923008  
2487.000000	97.986638  
2486.000000	98.034943  
2485.000000	98.054798  
2484.000000	98.055483  
2483.000000	98.059140  
2482.000000	98.073601  
2481.000000	98.082394  
2480.000000	98.071753  
2479.000000	98.059388  
2478.000000	98.078991  
2477.000000	98.135782  
2476.000000	98.192825  
2475.000000	98.208368  
2474.000000	98.178387  
2473.000000	98.136895  
2472.000000	98.120745  
2471.000000	98.139933  
2470.000000	98.178802  
2469.000000	98.218818  
2468.000000	98.256329  
2467.000000	98.297766  
2466.000000	98.341430  
2465.000000	98.371949  
2464.000000	98.376163  
2463.000000	98.358251  
2462.000000	98.333411  
2461.000000	98.311604  
2460.000000	98.294392  
2459.000000	98.282893  
2458.000000	98.278371  
2457.000000	98.276070  
2456.000000	98.269601  
2455.000000	98.265005  
2454.000000	98.281465  
2453.000000	98.330370  
2452.000000	98.396018  
2451.000000	98.442565  
2450.000000	98.442658  
2449.000000	98.400903  
2448.000000	98.350978  
2447.000000	98.328734  
2446.000000	98.344848  
2445.000000	98.380790  
2444.000000	98.408935  
2443.000000	98.414381  
2442.000000	98.398980  
2441.000000	98.373394  
2440.000000	98.352922  
2439.000000	98.355615  
2438.000000	98.390434  
2437.000000	98.441655  
2436.000000	98.474018  
2435.000000	98.464622  
2434.000000	98.430702  
2433.000000	98.418638  
2432.000000	98.460909  
2431.000000	98.545806  
2430.000000	98.631558  
2429.000000	98.686210  
2428.000000	98.707914  
2427.000000	98.709472  
2426.000000	98.696805  
2425.000000	98.670932  
2424.000000	98.642259  
2423.000000	98.628922  
2422.000000	98.640019  
2421.000000	98.668644  
2420.000000	98.701563  
2419.000000	98.728492  
2418.000000	98.743389  
2417.000000	98.747712  
2416.000000	98.754446  
2415.000000	98.777719  
2414.000000	98.812844  
2413.000000	98.835351  
2412.000000	98.826558  
2411.000000	98.794038  
2410.000000	98.762225  
2409.000000	98.750222  
2408.000000	98.763776  
2407.000000	98.798504  
2406.000000	98.839820  
2405.000000	98.866286  
2404.000000	98.867913  
2403.000000	98.862378  
2402.000000	98.882347  
2401.000000	98.942039  
2400.000000	99.020743  
2399.000000	99.081303  
2398.000000	99.101461  
2397.000000	99.087270  
2396.000000	99.061929  
2395.000000	99.046056  
2394.000000	99.046309  
2393.000000	99.057643  
2392.000000	99.073257  
2391.000000	99.091820  
2390.000000	99.116904  
2389.000000	99.151714  
2388.000000	99.194569  
2387.000000	99.238031  
2386.000000	99.272601  
2385.000000	99.293532  
2384.000000	99.304529  
2383.000000	99.312725  
2382.000000	99.319610  
2381.000000	99.319122  
2380.000000	99.304729  
2379.000000	99.275439  
2378.000000	99.235099  
2377.000000	99.190953  
2376.000000	99.156971  
2375.000000	99.150326  
2374.000000	99.178064  
2373.000000	99.234243  
2372.000000	99.314519  
2371.000000	99.423241  
2370.000000	99.553751  
2369.000000	99.672062  
2368.000000	99.744065  
2367.000000	99.778415  
2366.000000	99.817289  
2365.000000	99.874866  
2364.000000	99.905528  
2363.000000	99.848859  
2362.000000	99.683188  
2361.000000	99.458504  
2360.000000	99.294873  
2359.000000	99.281317  
2358.000000	99.389909  
2357.000000	99.505784  
2356.000000	99.549218  
2355.000000	99.538150  
2354.000000	99.508708  
2353.000000	99.479813  
2352.000000	99.455722  
2351.000000	99.435587  
2350.000000	99.418711  
2349.000000	99.401791  
2348.000000	99.416261  
2347.000000	99.497550  
2346.000000	99.636830  
2345.000000	99.744697  
2344.000000	99.743707  
2343.000000	99.687246  
2342.000000	99.629919  
2341.000000	99.554482  
2340.000000	99.424290  
2339.000000	99.269631  
2338.000000	99.177890  
2337.000000	99.210642  
2336.000000	99.348205  
2335.000000	99.506518  
2334.000000	99.599559  
2333.000000	99.606400  
2332.000000	99.576110  
2331.000000	99.566003  
2330.000000	99.598426  
2329.000000	99.644388  
2328.000000	99.701045  
2327.000000	99.764620  
2326.000000	99.817912  
2325.000000	99.829241  
2324.000000	99.787412  
2323.000000	99.728323  
2322.000000	99.675905  
2321.000000	99.638981  
2320.000000	99.622910  
2319.000000	99.648601  
2318.000000	99.714300  
2317.000000	99.774964  
2316.000000	99.784917  
2315.000000	99.736331  
2314.000000	99.669250  
2313.000000	99.631196  
2312.000000	99.659796  
2311.000000	99.755732  
2310.000000	99.878432  
2309.000000	99.956743  
2308.000000	99.949968  
2307.000000	99.883604  
2306.000000	99.824491  
2305.000000	99.813894  
2304.000000	99.838179  
2303.000000	99.857378  
2302.000000	99.850109  
2301.000000	99.827109  
2300.000000	99.815572  
2299.000000	99.826015  
2298.000000	99.840520  
2297.000000	99.823485  
2296.000000	99.759671  
2295.000000	99.668603  
2294.000000	99.589559  
2293.000000	99.547546  
2292.000000	99.542215  
2291.000000	99.556897  
2290.000000	99.570454  
2289.000000	99.564947  
2288.000000	99.532235  
2287.000000	99.478290  
2286.000000	99.416903  
2285.000000	99.363909  
2284.000000	99.333495  
2283.000000	99.331803  
2282.000000	99.346004  
2281.000000	99.352671  
2280.000000	99.344889  
2279.000000	99.342971  
2278.000000	99.365099  
2277.000000	99.398722  
2276.000000	99.414902  
2275.000000	99.401065  
2274.000000	99.365599  
2273.000000	99.319048  
2272.000000	99.272307  
2271.000000	99.245465  
2270.000000	99.256204  
2269.000000	99.296867  
2268.000000	99.338398  
2267.000000	99.357743  
2266.000000	99.350396  
2265.000000	99.322025  
2264.000000	99.286000  
2263.000000	99.263701  
2262.000000	99.269263  
2261.000000	99.293910  
2260.000000	99.318930  
2259.000000	99.339597  
2258.000000	99.355545  
2257.000000	99.347601  
2256.000000	99.292753  
2255.000000	99.207206  
2254.000000	99.145450  
2253.000000	99.143200  
2252.000000	99.181923  
2251.000000	99.220572  
2250.000000	99.245093  
2249.000000	99.271274  
2248.000000	99.312320  
2247.000000	99.359989  
2246.000000	99.394297  
2245.000000	99.401008  
2244.000000	99.381449  
2243.000000	99.350017  
2242.000000	99.322745  
2241.000000	99.308885  
2240.000000	99.314291  
2239.000000	99.344839  
2238.000000	99.395614  
2237.000000	99.442607  
2236.000000	99.460915  
2235.000000	99.450768  
2234.000000	99.432052  
2233.000000	99.416012  
2232.000000	99.398710  
2231.000000	99.380286  
2230.000000	99.368452  
2229.000000	99.358791  
2228.000000	99.336162  
2227.000000	99.307712  
2226.000000	99.311762  
2225.000000	99.371343  
2224.000000	99.451138  
2223.000000	99.485981  
2222.000000	99.453074  
2221.000000	99.399018  
2220.000000	99.388549  
2219.000000	99.436610  
2218.000000	99.498261  
2217.000000	99.519023  
2216.000000	99.487055  
2215.000000	99.435734  
2214.000000	99.404989  
2213.000000	99.408327  
2212.000000	99.431822  
2211.000000	99.451254  
2210.000000	99.446408  
2209.000000	99.412407  
2208.000000	99.368495  
2207.000000	99.349067  
2206.000000	99.375224  
2205.000000	99.435348  
2204.000000	99.497028  
2203.000000	99.531579  
2202.000000	99.523756  
2201.000000	99.475640  
2200.000000	99.418017  
2199.000000	99.403973  
2198.000000	99.463012  
2197.000000	99.557822  
2196.000000	99.610623  
2195.000000	99.583667  
2194.000000	99.517152  
2193.000000	99.477835  
2192.000000	99.485361  
2191.000000	99.504846  
2190.000000	99.501607  
2189.000000	99.480679  
2188.000000	99.467166  
2187.000000	99.463625  
2186.000000	99.444271  
2185.000000	99.392674  
2184.000000	99.333344  
2183.000000	99.314285  
2182.000000	99.356911  
2181.000000	99.428287  
2180.000000	99.467503  
2179.000000	99.439782  
2178.000000	99.366152  
2177.000000	99.304534  
2176.000000	99.297545  
2175.000000	99.334473  
2174.000000	99.370129  
2173.000000	99.381598  
2172.000000	99.391898  
2171.000000	99.429696  
2170.000000	99.483737  
2169.000000	99.516258  
2168.000000	99.509263  
2167.000000	99.470681  
2166.000000	99.402726  
2165.000000	99.302530  
2164.000000	99.197940  
2163.000000	99.140088  
2162.000000	99.140425  
2161.000000	99.147976  
2160.000000	99.119082  
2159.000000	99.081958  
2158.000000	99.090032  
2157.000000	99.143059  
2156.000000	99.203733  
2155.000000	99.258005  
2154.000000	99.311310  
2153.000000	99.344975  
2152.000000	99.315449  
2151.000000	99.199929  
2150.000000	99.027179  
2149.000000	98.863086  
2148.000000	98.769093  
2147.000000	98.762828  
2146.000000	98.806156  
2145.000000	98.838888  
2144.000000	98.838938  
2143.000000	98.842708  
2142.000000	98.896173  
2141.000000	98.996232  
2140.000000	99.091674  
2139.000000	99.132309  
2138.000000	99.104066  
2137.000000	99.027954  
2136.000000	98.944772  
2135.000000	98.897756  
2134.000000	98.909341  
2133.000000	98.963284  
2132.000000	99.014505  
2131.000000	99.022035  
2130.000000	98.975826  
2129.000000	98.899726  
2128.000000	98.832313  
2127.000000	98.799187  
2126.000000	98.797474  
2125.000000	98.806346  
2124.000000	98.812525  
2123.000000	98.821555  
2122.000000	98.844739  
2121.000000	98.883383  
2120.000000	98.928005  
2119.000000	98.963884  
2118.000000	98.973712  
2117.000000	98.947118  
2116.000000	98.898185  
2115.000000	98.866064  
2114.000000	98.885397  
2113.000000	98.953975  
2112.000000	99.033726  
2111.000000	99.082677  
2110.000000	99.084861  
2109.000000	99.057827  
2108.000000	99.037911  
2107.000000	99.051428  
2106.000000	99.091506  
2105.000000	99.125327  
2104.000000	99.128557  
2103.000000	99.107844  
2102.000000	99.087146  
2101.000000	99.083372  
2100.000000	99.104043  
2099.000000	99.157326  
2098.000000	99.247094  
2097.000000	99.357674  
2096.000000	99.456253  
2095.000000	99.514809  
2094.000000	99.524730  
2093.000000	99.492985  
2092.000000	99.433351  
2091.000000	99.363509  
2090.000000	99.302981  
2089.000000	99.264130  
2088.000000	99.242056  
2087.000000	99.218853  
2086.000000	99.185498  
2085.000000	99.160051  
2084.000000	99.174643  
2083.000000	99.238213  
2082.000000	99.320423  
2081.000000	99.381614  
2080.000000	99.410662  
2079.000000	99.419230  
2078.000000	99.409964  
2077.000000	99.376972  
2076.000000	99.335642  
2075.000000	99.321538  
2074.000000	99.348706  
2073.000000	99.393677  
2072.000000	99.433248  
2071.000000	99.473731  
2070.000000	99.524100  
2069.000000	99.561479  
2068.000000	99.551372  
2067.000000	99.494149  
2066.000000	99.429143  
2065.000000	99.393042  
2064.000000	99.387807  
2063.000000	99.389634  
2062.000000	99.377645  
2061.000000	99.351058  
2060.000000	99.323101  
2059.000000	99.298258  
2058.000000	99.261277  
2057.000000	99.201619  
2056.000000	99.144970  
2055.000000	99.136949  
2054.000000	99.187329  
2053.000000	99.254215  
2052.000000	99.297715  
2051.000000	99.325902  
2050.000000	99.368623  
2049.000000	99.423897  
2048.000000	99.458470  
2047.000000	99.455263  
2046.000000	99.430212  
2045.000000	99.404361  
2044.000000	99.383523  
2043.000000	99.365162  
2042.000000	99.351348  
2041.000000	99.355406  
2040.000000	99.397468  
2039.000000	99.479664  
2038.000000	99.563058  
2037.000000	99.598158  
2036.000000	99.593526  
2035.000000	99.614188  
2034.000000	99.679413  
2033.000000	99.702167  
2032.000000	99.585524  
2031.000000	99.356042  
2030.000000	99.149252  
2029.000000	99.080037  
2028.000000	99.165347  
2027.000000	99.352584  
2026.000000	99.559963  
2025.000000	99.690986  
2024.000000	99.684705  
2023.000000	99.581644  
2022.000000	99.503654  
2021.000000	99.540970  
2020.000000	99.675950  
2019.000000	99.827170  
2018.000000	99.933412  
2017.000000	99.973860  
2016.000000	99.941515  
2015.000000	99.840569  
2014.000000	99.710473  
2013.000000	99.618943  
2012.000000	99.609008  
2011.000000	99.660270  
2010.000000	99.709538  
2009.000000	99.704298  
2008.000000	99.636433  
2007.000000	99.535737  
2006.000000	99.443228  
2005.000000	99.388952  
2004.000000	99.380768  
2003.000000	99.408189  
2002.000000	99.460721  
2001.000000	99.536459  
2000.000000	99.628710  
1999.000000	99.708727  
1998.000000	99.738926  
1997.000000	99.712193  
1996.000000	99.659261  
1995.000000	99.607840  
1994.000000	99.554217  
1993.000000	99.487253  
1992.000000	99.417872  
1991.000000	99.363747  
1990.000000	99.323178  
1989.000000	99.289736  
1988.000000	99.274764  
1987.000000	99.286901  
1986.000000	99.303168  
1985.000000	99.295556  
1984.000000	99.284275  
1983.000000	99.329305  
1982.000000	99.460201  
1981.000000	99.631428  
1980.000000	99.754926  
1979.000000	99.766478  
1978.000000	99.673118  
1977.000000	99.559082  
1976.000000	99.521181  
1975.000000	99.572560  
1974.000000	99.628835  
1973.000000	99.613934  
1972.000000	99.558157  
1971.000000	99.553512  
1970.000000	99.634271  
1969.000000	99.747992  
1968.000000	99.830817  
1967.000000	99.863156  
1966.000000	99.850506  
1965.000000	99.800558  
1964.000000	99.731819  
1963.000000	99.668681  
1962.000000	99.619433  
1961.000000	99.583850  
1960.000000	99.578950  
1959.000000	99.624204  
1958.000000	99.703628  
1957.000000	99.774975  
1956.000000	99.813070  
1955.000000	99.814558  
1954.000000	99.771717  
1953.000000	99.686004  
1952.000000	99.599575  
1951.000000	99.567647  
1950.000000	99.593411  
1949.000000	99.625156  
1948.000000	99.628157  
1947.000000	99.620355  
1946.000000	99.627174  
1945.000000	99.644142  
1944.000000	99.661233  
1943.000000	99.686110  
1942.000000	99.718489  
1941.000000	99.734836  
1940.000000	99.722021  
1939.000000	99.697941  
1938.000000	99.686058  
1937.000000	99.692042  
1936.000000	99.711640  
1935.000000	99.737638  
1934.000000	99.750063  
1933.000000	99.730923  
1932.000000	99.699463  
1931.000000	99.703134  
1930.000000	99.753680  
1929.000000	99.796840  
1928.000000	99.779763  
1927.000000	99.720790  
1926.000000	99.689341  
1925.000000	99.726619  
1924.000000	99.806797  
1923.000000	99.875039  
1922.000000	99.903047  
1921.000000	99.908649  
1920.000000	99.928978  
1919.000000	99.977370  
1918.000000	100.019684 
1917.000000	100.004157 
1916.000000	99.920187  
1915.000000	99.804622  
1914.000000	99.701680  
1913.000000	99.638589  
1912.000000	99.622725  
1911.000000	99.643735  
1910.000000	99.673016  
1909.000000	99.679479  
1908.000000	99.661502  
1907.000000	99.640768  
1906.000000	99.628799  
1905.000000	99.616509  
1904.000000	99.597101  
1903.000000	99.581616  
1902.000000	99.575489  
1901.000000	99.566356  
1900.000000	99.550254  
1899.000000	99.543436  
1898.000000	99.559485  
1897.000000	99.593160  
1896.000000	99.635344  
1895.000000	99.686582  
1894.000000	99.738602  
1893.000000	99.766114  
1892.000000	99.752848  
1891.000000	99.709249  
1890.000000	99.656190  
1889.000000	99.608213  
1888.000000	99.580463  
1887.000000	99.587097  
1886.000000	99.618034  
1885.000000	99.639463  
1884.000000	99.632989  
1883.000000	99.618749  
1882.000000	99.622564  
1881.000000	99.641177  
1880.000000	99.660367  
1879.000000	99.680293  
1878.000000	99.704233  
1877.000000	99.721797  
1876.000000	99.720822  
1875.000000	99.707746  
1874.000000	99.698474  
1873.000000	99.695870  
1872.000000	99.692614  
1871.000000	99.686205  
1870.000000	99.676631  
1869.000000	99.659112  
1868.000000	99.638074  
1867.000000	99.632333  
1866.000000	99.644835  
1865.000000	99.650562  
1864.000000	99.629477  
1863.000000	99.593932  
1862.000000	99.571604  
1861.000000	99.570971  
1860.000000	99.577631  
1859.000000	99.575340  
1858.000000	99.556632  
1857.000000	99.522527  
1856.000000	99.484716  
1855.000000	99.458706  
1854.000000	99.447232  
1853.000000	99.435820  
1852.000000	99.418613  
1851.000000	99.403573  
1850.000000	99.391814  
1849.000000	99.379082  
1848.000000	99.373299  
1847.000000	99.392195  
1846.000000	99.433334  
1845.000000	99.462636  
1844.000000	99.449921  
1843.000000	99.409290  
1842.000000	99.366588  
1841.000000	99.323264  
1840.000000	99.284337  
1839.000000	99.264733  
1838.000000	99.261610  
1837.000000	99.247428  
1836.000000	99.205493  
1835.000000	99.154937  
1834.000000	99.118361  
1833.000000	99.091892  
1832.000000	99.063986  
1831.000000	99.034353  
1830.000000	99.003893  
1829.000000	98.973227  
1828.000000	98.953105  
1827.000000	98.952325  
1826.000000	98.955240  
1825.000000	98.928248  
1824.000000	98.861287  
1823.000000	98.785586  
1822.000000	98.727221  
1821.000000	98.676758  
1820.000000	98.617920  
1819.000000	98.554535  
1818.000000	98.495937  
1817.000000	98.428227  
1816.000000	98.332251  
1815.000000	98.221800  
1814.000000	98.124835  
1813.000000	98.045639  
1812.000000	97.961613  
1811.000000	97.853917  
1810.000000	97.728497  
1809.000000	97.598929  
1808.000000	97.474453  
1807.000000	97.361000  
1806.000000	97.253434  
1805.000000	97.136337  
1804.000000	97.003266  
1803.000000	96.865443  
1802.000000	96.720519  
1801.000000	96.541546  
1800.000000	96.313626  
1799.000000	96.062257  
1798.000000	95.822969  
1797.000000	95.597556  
1796.000000	95.367826  
1795.000000	95.127310  
1794.000000	94.879413  
1793.000000	94.623578  
1792.000000	94.358576  
1791.000000	94.089478  
1790.000000	93.811757  
1789.000000	93.512620  
1788.000000	93.206394  
1787.000000	92.934566  
1786.000000	92.718777  
1785.000000	92.528066  
1784.000000	92.313665  
1783.000000	92.062407  
1782.000000	91.775040  
1781.000000	91.443840  
1780.000000	91.067559  
1779.000000	90.651880  
1778.000000	90.179858  
1777.000000	89.603897  
1776.000000	88.905852  
1775.000000	88.122336  
1774.000000	87.301639  
1773.000000	86.472896  
1772.000000	85.665453  
1771.000000	84.903421  
1770.000000	84.149217  
1769.000000	83.307157  
1768.000000	82.316421  
1767.000000	81.222764  
1766.000000	80.117576  
1765.000000	79.024611  
1764.000000	77.889623  
1763.000000	76.672062  
1762.000000	75.434518  
1761.000000	74.311908  
1760.000000	73.352027  
1759.000000	72.454680  
1758.000000	71.466507  
1757.000000	70.309428  
1756.000000	69.060545  
1755.000000	67.858642  
1754.000000	66.763099  
1753.000000	65.760848  
1752.000000	64.839552  
1751.000000	63.993469  
1750.000000	63.191928  
1749.000000	62.384051  
1748.000000	61.546896  
1747.000000	60.708596  
1746.000000	59.918083  
1745.000000	59.215086  
1744.000000	58.607117  
1743.000000	58.064616  
1742.000000	57.554264  
1741.000000	57.085496  
1740.000000	56.732213  
1739.000000	56.592836  
1738.000000	56.723297  
1737.000000	57.187872  
1736.000000	58.157644  
1735.000000	59.815045  
1734.000000	61.825050  
1733.000000	63.401658  
1732.000000	64.215591  
1731.000000	64.462868  
1730.000000	64.440824  
1729.000000	64.423291  
1728.000000	64.553486  
1727.000000	64.831617  
1726.000000	65.228549  
1725.000000	65.762580  
1724.000000	66.421149  
1723.000000	67.118135  
1722.000000	67.797149  
1721.000000	68.504983  
1720.000000	69.346100  
1719.000000	70.414594  
1718.000000	71.733809  
1717.000000	73.193868  
1716.000000	74.634375  
1715.000000	75.996799  
1714.000000	77.321815  
1713.000000	78.658205  
1712.000000	80.016440  
1711.000000	81.384470  
1710.000000	82.744281  
1709.000000	84.074371  
1708.000000	85.375061  
1707.000000	86.671130  
1706.000000	87.945501  
1705.000000	89.079072  
1704.000000	89.979872  
1703.000000	90.704584  
1702.000000	91.410932  
1701.000000	92.231595  
1700.000000	93.065468  
1699.000000	93.737932  
1698.000000	94.255760  
1697.000000	94.706999  
1696.000000	95.134900  
1695.000000	95.490706  
1694.000000	95.729188  
1693.000000	95.875606  
1692.000000	95.989978  
1691.000000	96.127410  
1690.000000	96.281208  
1689.000000	96.406354  
1688.000000	96.500074  
1687.000000	96.593114  
1686.000000	96.711574  
1685.000000	96.848643  
1684.000000	96.952395  
1683.000000	97.010907  
1682.000000	97.037038  
1681.000000	97.020640  
1680.000000	96.986984  
1679.000000	96.973221  
1678.000000	96.980375  
1677.000000	96.998129  
1676.000000	97.026351  
1675.000000	97.061469  
1674.000000	97.086373  
1673.000000	97.095340  
1672.000000	97.095619  
1671.000000	97.101347  
1670.000000	97.105581  
1669.000000	97.090741  
1668.000000	97.078369  
1667.000000	97.086192  
1666.000000	97.097485  
1665.000000	97.099564  
1664.000000	97.095209  
1663.000000	97.084302  
1662.000000	97.050831  
1661.000000	96.996850  
1660.000000	96.953485  
1659.000000	96.940730  
1658.000000	96.947251  
1657.000000	96.953561  
1656.000000	96.963708  
1655.000000	96.990868  
1654.000000	97.042961  
1653.000000	97.067040  
1652.000000	97.087101  
1651.000000	97.150594  
1650.000000	97.176873  
1649.000000	97.149994  
1648.000000	97.133867  
1647.000000	97.151930  
1646.000000	97.177206  
1645.000000	97.190209  
1644.000000	97.194835  
1643.000000	97.197055  
1642.000000	97.199756  
1641.000000	97.202925  
1640.000000	97.215898  
1639.000000	97.242949  
1638.000000	97.271031  
1637.000000	97.279730  
1636.000000	97.269312  
1635.000000	97.262560  
1634.000000	97.280804  
1633.000000	97.304768  
1632.000000	97.310716  
1631.000000	97.314206  
1630.000000	97.324070  
1629.000000	97.328594  
1628.000000	97.324764  
1627.000000	97.326823  
1626.000000	97.336351  
1625.000000	97.341958  
1624.000000	97.341681  
1623.000000	97.337895  
1622.000000	97.323896  
1621.000000	97.294240  
1620.000000	97.257385  
1619.000000	97.225247  
1618.000000	97.199019  
1617.000000	97.163954  
1616.000000	97.130324  
1615.000000	97.120938  
1614.000000	97.112908  
1613.000000	97.077681  
1612.000000	97.026717  
1611.000000	96.981588  
1610.000000	96.936113  
1609.000000	96.875278  
1608.000000	96.807525  
1607.000000	96.747825  
1606.000000	96.685130  
1605.000000	96.606335  
1604.000000	96.525050  
1603.000000	96.450812  
1602.000000	96.365011  
1601.000000	96.249932  
1600.000000	96.122045  
1599.000000	96.008020  
1598.000000	95.903749  
1597.000000	95.784665  
1596.000000	95.642140  
1595.000000	95.488472  
1594.000000	95.332882  
1593.000000	95.175355  
1592.000000	95.017554  
1591.000000	94.857733  
1590.000000	94.682644  
1589.000000	94.485764  
1588.000000	94.284144  
1587.000000	94.094859  
1586.000000	93.907656  
1585.000000	93.699088  
1584.000000	93.472235  
1583.000000	93.243689  
1582.000000	93.013700  
1581.000000	92.782037  
1580.000000	92.567472  
1579.000000	92.377600  
1578.000000	92.180080  
1577.000000	91.934350  
1576.000000	91.663657  
1575.000000	91.450835  
1574.000000	91.306510  
1573.000000	91.171903  
1572.000000	91.029395  
1571.000000	90.908073  
1570.000000	90.824605  
1569.000000	90.765494  
1568.000000	90.732968  
1567.000000	90.729033  
1566.000000	90.734291  
1565.000000	90.736551  
1564.000000	90.762075  
1563.000000	90.839363  
1562.000000	90.968207  
1561.000000	91.128052  
1560.000000	91.346347  
1559.000000	91.591777  
1558.000000	91.759343  
1557.000000	91.876438  
1556.000000	91.995373  
1555.000000	92.135743  
1554.000000	92.297598  
1553.000000	92.449706  
1552.000000	92.593424  
1551.000000	92.743957  
1550.000000	92.891546  
1549.000000	93.001487  
1548.000000	93.080339  
1547.000000	93.177950  
1546.000000	93.316891  
1545.000000	93.465284  
1544.000000	93.578240  
1543.000000	93.647235  
1542.000000	93.693184  
1541.000000	93.721834  
1540.000000	93.719273  
1539.000000	93.714711  
1538.000000	93.745809  
1537.000000	93.784862  
1536.000000	93.812108  
1535.000000	93.854919  
1534.000000	93.906980  
1533.000000	93.925479  
1532.000000	93.904942  
1531.000000	93.874457  
1530.000000	93.850297  
1529.000000	93.834730  
1528.000000	93.834044  
1527.000000	93.853106  
1526.000000	93.867979  
1525.000000	93.848875  
1524.000000	93.804167  
1523.000000	93.769066  
1522.000000	93.759617  
1521.000000	93.755574  
1520.000000	93.743776  
1519.000000	93.720587  
1518.000000	93.669868  
1517.000000	93.585485  
1516.000000	93.487713  
1515.000000	93.403552  
1514.000000	93.325845  
1513.000000	93.234845  
1512.000000	93.137828  
1511.000000	93.060445  
1510.000000	93.008009  
1509.000000	92.946013  
1508.000000	92.819088  
1507.000000	92.555465  
1506.000000	92.152839  
1505.000000	91.743726  
1504.000000	91.395720  
1503.000000	91.054046  
1502.000000	90.664353  
1501.000000	90.194105  
1500.000000	89.644186  
1499.000000	89.026053  
1498.000000	88.310916  
1497.000000	87.465721  
1496.000000	86.566870  
1495.000000	85.770121  
1494.000000	85.139029  
1493.000000	84.641555  
1492.000000	84.249780  
1491.000000	83.948542  
1490.000000	83.692394  
1489.000000	83.412390  
1488.000000	83.068952  
1487.000000	82.665209  
1486.000000	82.223113  
1485.000000	81.765412  
1484.000000	81.312372  
1483.000000	80.857918  
1482.000000	80.385607  
1481.000000	79.918084  
1480.000000	79.510470  
1479.000000	79.193430  
1478.000000	78.956989  
1477.000000	78.788658  
1476.000000	78.684564  
1475.000000	78.628033  
1474.000000	78.572389  
1473.000000	78.475062  
1472.000000	78.336825  
1471.000000	78.181331  
1470.000000	78.013790  
1469.000000	77.834937  
1468.000000	77.664975  
1467.000000	77.522980  
1466.000000	77.399400  
1465.000000	77.272754  
1464.000000	77.150644  
1463.000000	77.052509  
1462.000000	76.978888  
1461.000000	76.927300  
1460.000000	76.896699  
1459.000000	76.841092  
1458.000000	76.639637  
1457.000000	76.261323  
1456.000000	75.936098  
1455.000000	75.859686  
1454.000000	75.959870  
1453.000000	76.084084  
1452.000000	76.129995  
1451.000000	76.076302  
1450.000000	75.973623  
1449.000000	75.886619  
1448.000000	75.849823  
1447.000000	75.860047  
1446.000000	75.885864  
1445.000000	75.896474  
1444.000000	75.878026  
1443.000000	75.832155  
1442.000000	75.780181  
1441.000000	75.752767  
1440.000000	75.768664  
1439.000000	75.810141  
1438.000000	75.825292  
1437.000000	75.764772  
1436.000000	75.657597  
1435.000000	75.595529  
1434.000000	75.623619  
1433.000000	75.719785  
1432.000000	75.830735  
1431.000000	75.892629  
1430.000000	75.865065  
1429.000000	75.757445  
1428.000000	75.613917  
1427.000000	75.476893  
1426.000000	75.353233  
1425.000000	75.228348  
1424.000000	75.100777  
1423.000000	74.987420  
1422.000000	74.903945  
1421.000000	74.848924  
1420.000000	74.811629  
1419.000000	74.778155  
1418.000000	74.740559  
1417.000000	74.705184  
1416.000000	74.691336  
1415.000000	74.719246  
1414.000000	74.787342  
1413.000000	74.869105  
1412.000000	74.935067  
1411.000000	74.976053  
1410.000000	75.007882  
1409.000000	75.053141  
1408.000000	75.119502  
1407.000000	75.198794  
1406.000000	75.269005  
1405.000000	75.307397  
1404.000000	75.314514  
1403.000000	75.315880  
1402.000000	75.334877  
1401.000000	75.369168  
1400.000000	75.400659  
1399.000000	75.419209  
1398.000000	75.427225  
1397.000000	75.417838  
1396.000000	75.367238  
1395.000000	75.255701  
1394.000000	75.077134  
1393.000000	74.829681  
1392.000000	74.508921  
1391.000000	74.116697  
1390.000000	73.652018  
1389.000000	73.081722  
1388.000000	72.357845  
1387.000000	71.492359  
1386.000000	70.557606  
1385.000000	69.590966  
1384.000000	68.577813  
1383.000000	67.528453  
1382.000000	66.505331  
1381.000000	65.567140  
1380.000000	64.741279  
1379.000000	64.051173  
1378.000000	63.506680  
1377.000000	63.073094  
1376.000000	62.704855  
1375.000000	62.398957  
1374.000000	62.163618  
1373.000000	61.968925  
1372.000000	61.801887  
1371.000000	61.717268  
1370.000000	61.727645  
1369.000000	61.674564  
1368.000000	61.360773  
1367.000000	60.876218  
1366.000000	60.644169  
1365.000000	61.048675  
1364.000000	62.060829  
1363.000000	63.251074  
1362.000000	64.221445  
1361.000000	64.944218  
1360.000000	65.556556  
1359.000000	66.041754  
1358.000000	66.284197  
1357.000000	66.292422  
1356.000000	66.224645  
1355.000000	66.227968  
1354.000000	66.354342  
1353.000000	66.622692  
1352.000000	67.059082  
1351.000000	67.659675  
1350.000000	68.380912  
1349.000000	69.191443  
1348.000000	70.087566  
1347.000000	71.049603  
1346.000000	72.033578  
1345.000000	73.013355  
1344.000000	73.990260  
1343.000000	74.959843  
1342.000000	75.908343  
1341.000000	76.836614  
1340.000000	77.742616  
1339.000000	78.582806  
1338.000000	79.304671  
1337.000000	79.913677  
1336.000000	80.457091  
1335.000000	80.957370  
1334.000000	81.404683  
1333.000000	81.798423  
1332.000000	82.153287  
1331.000000	82.470527  
1330.000000	82.741262  
1329.000000	82.975755  
1328.000000	83.195033  
1327.000000	83.398139  
1326.000000	83.569610  
1325.000000	83.714983  
1324.000000	83.856290  
1323.000000	83.996457  
1322.000000	84.121184  
1321.000000	84.231876  
1320.000000	84.343577  
1319.000000	84.451998  
1318.000000	84.537882  
1317.000000	84.606733  
1316.000000	84.689788  
1315.000000	84.800886  
1314.000000	84.921751  
1313.000000	85.034745  
1312.000000	85.144573  
1311.000000	85.260933  
1310.000000	85.381867  
1309.000000	85.501402  
1308.000000	85.616059  
1307.000000	85.721707  
1306.000000	85.818212  
1305.000000	85.916143  
1304.000000	86.023226  
1303.000000	86.127678  
1302.000000	86.212406  
1301.000000	86.280548  
1300.000000	86.348445  
1299.000000	86.419239  
1298.000000	86.483967  
1297.000000	86.543336  
1296.000000	86.606198  
1295.000000	86.668803  
1294.000000	86.716705  
1293.000000	86.746412  
1292.000000	86.766946  
1291.000000	86.782560  
1290.000000	86.791438  
1289.000000	86.797589  
1288.000000	86.805195  
1287.000000	86.804620  
1286.000000	86.783747  
1285.000000	86.750988  
1284.000000	86.729014  
1283.000000	86.728592  
1282.000000	86.746012  
1281.000000	86.781740  
1280.000000	86.840806  
1279.000000	86.914616  
1278.000000	86.982492  
1277.000000	87.034070  
1276.000000	87.075268  
1275.000000	87.113605  
1274.000000	87.152940  
1273.000000	87.199603  
1272.000000	87.256550  
1271.000000	87.313382  
1270.000000	87.358740  
1269.000000	87.400262  
1268.000000	87.456379  
1267.000000	87.532237  
1266.000000	87.619716  
1265.000000	87.714817  
1264.000000	87.815515  
1263.000000	87.907533  
1262.000000	87.973727  
1261.000000	88.015199  
1260.000000	88.044715  
1259.000000	88.063542  
1258.000000	88.064366  
1257.000000	88.051209  
1256.000000	88.033773  
1255.000000	88.005094  
1254.000000	87.946055  
1253.000000	87.849232  
1252.000000	87.716633  
1251.000000	87.537043  
1250.000000	87.290536  
1249.000000	86.976210  
1248.000000	86.611363  
1247.000000	86.197531  
1246.000000	85.705219  
1245.000000	85.095216  
1244.000000	84.337590  
1243.000000	83.408486  
1242.000000	82.289984  
1241.000000	80.982607  
1240.000000	79.505572  
1239.000000	77.880087  
1238.000000	76.127083  
1237.000000	74.290108  
1236.000000	72.446084  
1235.000000	70.678578  
1234.000000	69.049466  
1233.000000	67.609899  
1232.000000	66.422194  
1231.000000	65.546447  
1230.000000	65.017470  
1229.000000	64.853867  
1228.000000	65.065300  
1227.000000	65.626144  
1226.000000	66.473269  
1225.000000	67.541491  
1224.000000	68.712182  
1223.000000	69.647144  
1222.000000	69.763753  
1221.000000	68.577208  
1220.000000	66.193667  
1219.000000	63.450342  
1218.000000	61.467617  
1217.000000	60.956866  
1216.000000	61.863303  
1215.000000	63.547620  
1214.000000	65.254787  
1213.000000	66.498626  
1212.000000	67.153524  
1211.000000	67.319765  
1210.000000	67.162643  
1209.000000	66.841327  
1208.000000	66.502233  
1207.000000	66.269236  
1206.000000	66.222950  
1205.000000	66.400532  
1204.000000	66.810867  
1203.000000	67.438967  
1202.000000	68.252300  
1201.000000	69.224889  
1200.000000	70.346834  
1199.000000	71.599294  
1198.000000	72.938471  
1197.000000	74.317672  
1196.000000	75.705829  
1195.000000	77.074049  
1194.000000	78.389142  
1193.000000	79.636265  
1192.000000	80.827909  
1191.000000	81.975634  
1190.000000	83.067196  
1189.000000	84.080196  
1188.000000	85.002070  
1187.000000	85.827866  
1186.000000	86.553232  
1185.000000	87.179862  
1184.000000	87.720196  
1183.000000	88.192008  
1182.000000	88.612292  
1181.000000	88.993479  
1180.000000	89.337905  
1179.000000	89.639644  
1178.000000	89.900011  
1177.000000	90.135902  
1176.000000	90.363638  
1175.000000	90.581434  
1174.000000	90.778646  
1173.000000	90.954808  
1172.000000	91.116427  
1171.000000	91.262485  
1170.000000	91.388815  
1169.000000	91.502066  
1168.000000	91.614156  
1167.000000	91.725987  
1166.000000	91.829913  
1165.000000	91.924126  
1164.000000	92.011098  
1163.000000	92.087139  
1162.000000	92.149201  
1161.000000	92.208289  
1160.000000	92.279731  
1159.000000	92.361152  
1158.000000	92.433950  
1157.000000	92.484970  
1156.000000	92.513695  
1155.000000	92.521591  
1154.000000	92.509749  
1153.000000	92.486089  
1152.000000	92.461046  
1151.000000	92.435086  
1150.000000	92.399291  
1149.000000	92.344963  
1148.000000	92.262827  
1147.000000	92.138899  
1146.000000	91.965763  
1145.000000	91.755817  
1144.000000	91.530618  
1143.000000	91.297829  
1142.000000	91.048032  
1141.000000	90.770870  
1140.000000	90.463350  
1139.000000	90.125501  
1138.000000	89.760318  
1137.000000	89.376756  
1136.000000	88.981267  
1135.000000	88.566616  
1134.000000	88.119032  
1133.000000	87.634725  
1132.000000	87.118268  
1131.000000	86.566468  
1130.000000	85.966347  
1129.000000	85.308362  
1128.000000	84.588355  
1127.000000	83.796840  
1126.000000	82.922642  
1125.000000	81.971878  
1124.000000	80.970063  
1123.000000	79.941202  
1122.000000	78.899491  
1121.000000	77.866765  
1120.000000	76.876643  
1119.000000	75.944849  
1118.000000	75.053651  
1117.000000	74.189197  
1116.000000	73.381781  
1115.000000	72.685462  
1114.000000	72.128827  
1113.000000	71.709833  
1112.000000	71.425324  
1111.000000	71.274466  
1110.000000	71.241806  
1109.000000	71.307533  
1108.000000	71.467462  
1107.000000	71.716511  
1106.000000	72.023549  
1105.000000	72.351081  
1104.000000	72.688777  
1103.000000	73.038051  
1102.000000	73.373367  
1101.000000	73.648844  
1100.000000	73.838955  
1099.000000	73.945713  
1098.000000	73.968413  
1097.000000	73.889030  
1096.000000	73.689920  
1095.000000	73.374160  
1094.000000	72.976223  
1093.000000	72.569289  
1092.000000	72.248931  
1091.000000	72.075893  
1090.000000	72.027068  
1089.000000	72.022730  
1088.000000	72.004185  
1087.000000	71.970876  
1086.000000	71.952717  
1085.000000	71.974166  
1084.000000	72.045499  
1083.000000	72.162776  
1082.000000	72.307172  
1081.000000	72.457857  
1080.000000	72.607821  
1079.000000	72.757011  
1078.000000	72.893770  
1077.000000	72.994864  
1076.000000	73.039560  
1075.000000	73.014285  
1074.000000	72.911906  
1073.000000	72.737488  
1072.000000	72.505451  
1071.000000	72.219048  
1070.000000	71.862648  
1069.000000	71.426684  
1068.000000	70.925873  
1067.000000	70.373682  
1066.000000	69.751894  
1065.000000	69.031472  
1064.000000	68.217246  
1063.000000	67.345063  
1062.000000	66.436350  
1061.000000	65.482700  
1060.000000	64.478009  
1059.000000	63.438994  
1058.000000	62.386673  
1057.000000	61.329548  
1056.000000	60.270841  
1055.000000	59.211314  
1054.000000	58.140930  
1053.000000	57.050774  
1052.000000	55.958489  
1051.000000	54.896982  
1050.000000	53.874658  
1049.000000	52.879054  
1048.000000	51.919209  
1047.000000	51.024213  
1046.000000	50.201441  
1045.000000	49.433274  
1044.000000	48.709243  
1043.000000	48.026461  
1042.000000	47.362582  
1041.000000	46.682106  
1040.000000	45.970937  
1039.000000	45.238201  
1038.000000	44.487584  
1037.000000	43.714813  
1036.000000	42.927041  
1035.000000	42.133479  
1034.000000	41.323058  
1033.000000	40.483718  
1032.000000	39.636345  
1031.000000	38.815645  
1030.000000	38.027106  
1029.000000	37.262218  
1028.000000	36.548464  
1027.000000	35.941430  
1026.000000	35.471690  
1025.000000	35.140894  
1024.000000	34.965037  
1023.000000	34.979517  
1022.000000	35.207896  
1021.000000	35.666517  
1020.000000	36.388123  
1019.000000	37.394556  
1018.000000	38.655792  
1017.000000	40.119042  
1016.000000	41.763634  
1015.000000	43.583232  
1014.000000	45.529794  
1013.000000	47.519413  
1012.000000	49.481159  
1011.000000	51.363868  
1010.000000	53.114137  
1009.000000	54.690039  
1008.000000	56.089005  
1007.000000	57.332313  
1006.000000	58.431835  
1005.000000	59.396180  
1004.000000	60.253630  
1003.000000	61.038100  
1002.000000	61.760354  
1001.000000	62.418196  
1000.000000	63.025357  
999.000000	 63.605482  
998.000000	 64.168307  
997.000000	 64.719055  
996.000000	 65.283191  
995.000000	 65.893854  
994.000000	 66.558982  
993.000000	 67.265739  
992.000000	 68.012114  
991.000000	 68.807920  
990.000000	 69.646623  
989.000000	 70.499928  
988.000000	 71.340191  
987.000000	 72.148833  
986.000000	 72.904140  
985.000000	 73.579835  
984.000000	 74.158720  
983.000000	 74.636206  
982.000000	 75.010826  
981.000000	 75.282184  
980.000000	 75.458530  
979.000000	 75.557470  
978.000000	 75.597842  
977.000000	 75.596661  
976.000000	 75.574907  
975.000000	 75.563171  
974.000000	 75.602447  
973.000000	 75.738217  
972.000000	 76.002357  
971.000000	 76.389806  
970.000000	 76.854600  
969.000000	 77.330394  
968.000000	 77.744779  
967.000000	 78.012595  
966.000000	 78.038328  
965.000000	 77.747853  
964.000000	 77.123309  
963.000000	 76.212827  
962.000000	 75.120275  
961.000000	 73.986820  
960.000000	 72.958939  
959.000000	 72.142727  
958.000000	 71.575242  
957.000000	 71.240465  
956.000000	 71.104602  
955.000000	 71.131641  
954.000000	 71.293154  
953.000000	 71.597570  
952.000000	 72.104872  
951.000000	 72.885914  
950.000000	 73.964098  
949.000000	 75.303858  
948.000000	 76.833127  
947.000000	 78.448413  
946.000000	 80.015325  
945.000000	 81.405239  
944.000000	 82.543317  
943.000000	 83.414105  
942.000000	 84.029411  
941.000000	 84.404629  
940.000000	 84.559530  
939.000000	 84.521448  
938.000000	 84.316430  
937.000000	 83.960212  
936.000000	 83.462460  
935.000000	 82.839143  
934.000000	 82.119854  
933.000000	 81.344795  
932.000000	 80.554822  
931.000000	 79.781796  
930.000000	 79.048391  
929.000000	 78.377944  
928.000000	 77.798071  
927.000000	 77.326903  
926.000000	 76.960810  
925.000000	 76.685893  
924.000000	 76.497542  
923.000000	 76.398915  
922.000000	 76.386929  
921.000000	 76.453194  
920.000000	 76.594223  
919.000000	 76.807916  
918.000000	 77.083652  
917.000000	 77.406203  
916.000000	 77.763853  
915.000000	 78.143969  
914.000000	 78.530957  
913.000000	 78.921669  
912.000000	 79.334989  
911.000000	 79.793613  
910.000000	 80.302193  
909.000000	 80.850968  
908.000000	 81.427699  
907.000000	 82.013116  
906.000000	 82.578044  
905.000000	 83.102214  
904.000000	 83.589219  
903.000000	 84.052814  
902.000000	 84.498167  
901.000000	 84.924195  
900.000000	 85.327734  
899.000000	 85.692018  
898.000000	 85.988403  
897.000000	 86.210333  
896.000000	 86.393778  
895.000000	 86.581457  
894.000000	 86.772037  
893.000000	 86.925052  
892.000000	 87.012712  
891.000000	 87.045970  
890.000000	 87.050429  
889.000000	 87.040201  
888.000000	 87.023906  
887.000000	 87.016449  
886.000000	 87.027008  
885.000000	 87.041452  
884.000000	 87.029712  
883.000000	 86.969947  
882.000000	 86.857505  
881.000000	 86.690103  
880.000000	 86.454046  
879.000000	 86.135087  
878.000000	 85.743015  
877.000000	 85.313426  
876.000000	 84.872260  
875.000000	 84.399972  
874.000000	 83.844960  
873.000000	 83.179588  
872.000000	 82.433535  
871.000000	 81.667736  
870.000000	 80.930325  
869.000000	 80.249372  
868.000000	 79.653566  
867.000000	 79.177534  
866.000000	 78.849746  
865.000000	 78.690164  
864.000000	 78.711460  
863.000000	 78.901131  
862.000000	 79.205956  
861.000000	 79.554430  
860.000000	 79.893972  
859.000000	 80.194446  
858.000000	 80.429513  
857.000000	 80.581775  
856.000000	 80.664034  
855.000000	 80.710174  
854.000000	 80.740015  
853.000000	 80.751289  
852.000000	 80.748697  
851.000000	 80.759800  
850.000000	 80.814105  
849.000000	 80.922637  
848.000000	 81.085105  
847.000000	 81.301238  
846.000000	 81.566664  
845.000000	 81.871514  
844.000000	 82.213280  
843.000000	 82.602260  
842.000000	 83.046487  
841.000000	 83.536477  
840.000000	 84.047796  
839.000000	 84.552941  
838.000000	 85.029947  
837.000000	 85.467372  
836.000000	 85.866008  
835.000000	 86.233113  
834.000000	 86.570480  
833.000000	 86.865255  
832.000000	 87.090532  
831.000000	 87.217636  
830.000000	 87.237020  
829.000000	 87.173335  
828.000000	 87.075928  
827.000000	 86.986589  
826.000000	 86.913747  
825.000000	 86.838445  
824.000000	 86.740826  
823.000000	 86.617456  
822.000000	 86.482152  
821.000000	 86.358883  
820.000000	 86.267065  
819.000000	 86.205652  
818.000000	 86.157179  
817.000000	 86.113044  
816.000000	 86.086878  
815.000000	 86.094938  
814.000000	 86.131512  
813.000000	 86.176123  
812.000000	 86.219305  
811.000000	 86.265575  
810.000000	 86.312963  
809.000000	 86.346478  
808.000000	 86.355428  
807.000000	 86.344667  
806.000000	 86.323762  
805.000000	 86.293377  
804.000000	 86.246441  
803.000000	 86.175732  
802.000000	 86.077230  
801.000000	 85.953092  
800.000000	 85.815369  
799.000000	 85.681282  
798.000000	 85.560038  
797.000000	 85.446088  
796.000000	 85.326122  
795.000000	 85.190133  
794.000000	 85.038389  
793.000000	 84.884552  
792.000000	 84.750915  
791.000000	 84.651524  
790.000000	 84.576294  
789.000000	 84.496753  
788.000000	 84.389786  
787.000000	 84.252772  
786.000000	 84.097641  
785.000000	 83.938357  
784.000000	 83.786488  
783.000000	 83.650629  
782.000000	 83.531573  
781.000000	 83.418491  
780.000000	 83.295641  
779.000000	 83.156995  
778.000000	 83.014085  
777.000000	 82.885018  
776.000000	 82.772466  
775.000000	 82.657099  
774.000000	 82.520304  
773.000000	 82.370947  
772.000000	 82.238929  
771.000000	 82.139935  
770.000000	 82.056323  
769.000000	 81.957352  
768.000000	 81.829260  
767.000000	 81.680493  
766.000000	 81.527158  
765.000000	 81.381543  
764.000000	 81.249378  
763.000000	 81.129885  
762.000000	 81.018026  
761.000000	 80.908395  
760.000000	 80.796358  
759.000000	 80.679026  
758.000000	 80.557625  
757.000000	 80.431156  
756.000000	 80.287406  
755.000000	 80.122781  
754.000000	 79.980173  
753.000000	 79.924590  
752.000000	 79.936707  
751.000000	 79.865994  
750.000000	 79.571070  
749.000000	 79.114026  
748.000000	 78.737006  
747.000000	 78.608091  
746.000000	 78.650812  
745.000000	 78.667210  
744.000000	 78.563588  
743.000000	 78.389151  
742.000000	 78.207678  
741.000000	 78.025122  
740.000000	 77.830975  
739.000000	 77.629731  
738.000000	 77.420093  
737.000000	 77.195823  
736.000000	 76.972478  
735.000000	 76.771596  
734.000000	 76.582151  
733.000000	 76.379262  
732.000000	 76.172182  
731.000000	 75.986909  
730.000000	 75.812284  
729.000000	 75.617494  
728.000000	 75.413521  
727.000000	 75.238665  
726.000000	 75.087403  
725.000000	 74.914163  
724.000000	 74.710088  
723.000000	 74.515011  
722.000000	 74.345930  
721.000000	 74.172066  
720.000000	 73.978585  
719.000000	 73.798581  
718.000000	 73.650221  
717.000000	 73.501366  
716.000000	 73.326151  
715.000000	 73.143213  
714.000000	 72.973036  
713.000000	 72.801711  
712.000000	 72.616868  
711.000000	 72.442999  
710.000000	 72.309024  
709.000000	 72.208011  
708.000000	 72.111974  
707.000000	 72.001296  
706.000000	 71.864823  
705.000000	 71.697609  
704.000000	 71.514181  
703.000000	 71.340697  
702.000000	 71.181345  
701.000000	 71.017942  
700.000000	 70.847003  
699.000000	 70.680995  
698.000000	 70.510905  
697.000000	 70.308419  
696.000000	 70.073983  
695.000000	 69.841757  
694.000000	 69.622180  
693.000000	 69.386722  
692.000000	 69.125373  
691.000000	 68.868715  
690.000000	 68.637059  
689.000000	 68.412125  
688.000000	 68.175662  
687.000000	 67.925009  
686.000000	 67.630499  
685.000000	 67.247941  
684.000000	 66.796331  
683.000000	 66.353802  
682.000000	 65.963466  
681.000000	 65.605067  
680.000000	 65.270885  
679.000000	 64.996332  
678.000000	 64.790708  
677.000000	 64.603230  
676.000000	 64.382001  
675.000000	 64.137841  
674.000000	 63.913091  
673.000000	 63.721090  
672.000000	 63.536348  
671.000000	 63.304983  
670.000000	 62.974806  
669.000000	 62.531034  
668.000000	 62.167148  
667.000000	 62.231654  
666.000000	 62.565840  
665.000000	 62.813697  
664.000000	 62.924109  
663.000000	 62.960515  
662.000000	 62.932178  
661.000000	 62.804423  
660.000000	 62.611100  
659.000000	 62.465285  
658.000000	 62.405101  
657.000000	 62.372952  
656.000000	 62.260547  
655.000000	 62.152747  
654.000000	 61.987678  
653.000000	 62.397053  
652.000000	 62.418782  
651.000000	 62.351676  
650.000000	 62.375272  

