PE IR                   SPECTRUM    ASCII       PEDS        1.60        
  -1
121G~1.ASC
22/04/13
15:00:30.00
22/04/13
15:00:30.00
Admin

515.000000
4









SPECTRUM ONE,CPU32 MAIN 00.02.6000 25-JUNE-2003 12:00:00
MIR TGS
MIR
OPTKBR
68128
0.200000

4.000000
STRONG
RATIO
SPECTRUM
MAGNITUDE
UNIVERSAL ATR
DOUBLE

COMBINED


0


#HDR
-1
-1
#GR
CM-1
%T
0.00002384185791015625
0.0
4000.000000
-1.000000
3486
8
126.642731
39.443831
#DATA
4000.000000	96.729655  
3999.000000	96.721555  
3998.000000	96.726356  
3997.000000	96.741229  
3996.000000	96.760889  
3995.000000	96.781236  
3994.000000	96.802284  
3993.000000	96.826990  
3992.000000	96.855633  
3991.000000	96.880991  
3990.000000	96.890805  
3989.000000	96.878184  
3988.000000	96.850619  
3987.000000	96.826687  
3986.000000	96.820928  
3985.000000	96.831983  
3984.000000	96.847069  
3983.000000	96.857937  
3982.000000	96.869109  
3981.000000	96.888212  
3980.000000	96.911321  
3979.000000	96.922466  
3978.000000	96.909370  
3977.000000	96.877657  
3976.000000	96.847866  
3975.000000	96.837324  
3974.000000	96.844762  
3973.000000	96.852445  
3972.000000	96.842530  
3971.000000	96.811193  
3970.000000	96.769139  
3969.000000	96.732232  
3968.000000	96.712440  
3967.000000	96.714396  
3966.000000	96.736909  
3965.000000	96.776536  
3964.000000	96.829757  
3963.000000	96.891011  
3962.000000	96.947885  
3961.000000	96.980889  
3960.000000	96.974221  
3959.000000	96.930222  
3958.000000	96.873358  
3957.000000	96.836071  
3956.000000	96.835090  
3955.000000	96.857293  
3954.000000	96.868590  
3953.000000	96.841582  
3952.000000	96.778487  
3951.000000	96.711805  
3950.000000	96.681352  
3949.000000	96.704829  
3948.000000	96.764890  
3947.000000	96.822842  
3946.000000	96.847796  
3945.000000	96.836847  
3944.000000	96.814755  
3943.000000	96.812905  
3942.000000	96.841511  
3941.000000	96.881950  
3940.000000	96.906147  
3939.000000	96.899501  
3938.000000	96.867760  
3937.000000	96.827609  
3936.000000	96.792484  
3935.000000	96.766930  
3934.000000	96.752000  
3933.000000	96.754438  
3932.000000	96.783818  
3931.000000	96.837767  
3930.000000	96.893957  
3929.000000	96.922985  
3928.000000	96.910484  
3927.000000	96.867507  
3926.000000	96.820113  
3925.000000	96.788936  
3924.000000	96.780158  
3923.000000	96.792634  
3922.000000	96.821291  
3921.000000	96.852915  
3920.000000	96.872976  
3919.000000	96.881011  
3918.000000	96.891899  
3917.000000	96.916460  
3916.000000	96.949346  
3915.000000	96.978627  
3914.000000	96.997476  
3913.000000	97.001911  
3912.000000	96.989518  
3911.000000	96.963319  
3910.000000	96.933032  
3909.000000	96.907010  
3908.000000	96.887060  
3907.000000	96.872010  
3906.000000	96.862297  
3905.000000	96.859643  
3904.000000	96.860337  
3903.000000	96.859286  
3902.000000	96.862286  
3901.000000	96.883823  
3900.000000	96.927662  
3899.000000	96.975950  
3898.000000	97.003472  
3897.000000	96.997427  
3896.000000	96.960379  
3895.000000	96.903758  
3894.000000	96.849766  
3893.000000	96.827418  
3892.000000	96.852316  
3891.000000	96.904542  
3890.000000	96.951322  
3889.000000	96.986538  
3888.000000	97.019292  
3887.000000	97.046327  
3886.000000	97.053600  
3885.000000	97.035816  
3884.000000	97.009279  
3883.000000	96.996316  
3882.000000	96.993224  
3881.000000	96.979683  
3880.000000	96.952068  
3879.000000	96.927988  
3878.000000	96.929326  
3877.000000	96.961323  
3876.000000	97.005242  
3875.000000	97.035382  
3874.000000	97.037276  
3873.000000	97.017757  
3872.000000	97.000116  
3871.000000	96.999617  
3870.000000	97.004134  
3869.000000	96.987490  
3868.000000	96.952844  
3867.000000	96.929128  
3866.000000	96.922888  
3865.000000	96.915866  
3864.000000	96.902418  
3863.000000	96.897730  
3862.000000	96.913158  
3861.000000	96.939760  
3860.000000	96.965494  
3859.000000	96.987571  
3858.000000	97.006231  
3857.000000	97.016419  
3856.000000	97.014056  
3855.000000	97.018355  
3854.000000	97.059413  
3853.000000	97.104507  
3852.000000	97.096391  
3851.000000	97.056691  
3850.000000	97.026367  
3849.000000	97.005293  
3848.000000	96.982966  
3847.000000	96.962234  
3846.000000	96.950447  
3845.000000	96.945178  
3844.000000	96.943351  
3843.000000	96.952556  
3842.000000	96.986461  
3841.000000	97.047753  
3840.000000	97.119811  
3839.000000	97.175529  
3838.000000	97.199267  
3837.000000	97.191768  
3836.000000	97.162520  
3835.000000	97.126905  
3834.000000	97.100867  
3833.000000	97.093123  
3832.000000	97.095835  
3831.000000	97.087473  
3830.000000	97.054713  
3829.000000	97.005545  
3828.000000	96.960933  
3827.000000	96.937282  
3826.000000	96.937091  
3825.000000	96.956240  
3824.000000	96.994148  
3823.000000	97.043732  
3822.000000	97.088363  
3821.000000	97.107226  
3820.000000	97.091141  
3819.000000	97.069409  
3818.000000	97.070937  
3817.000000	97.081765  
3816.000000	97.069297  
3815.000000	97.025491  
3814.000000	96.984202  
3813.000000	96.983194  
3812.000000	97.013424  
3811.000000	97.035445  
3810.000000	97.029552  
3809.000000	97.011188  
3808.000000	97.008062  
3807.000000	97.024788  
3806.000000	97.041447  
3805.000000	97.053600  
3804.000000	97.073629  
3803.000000	97.094413  
3802.000000	97.094884  
3801.000000	97.056311  
3800.000000	96.983393  
3799.000000	96.917235  
3798.000000	96.884452  
3797.000000	96.873924  
3796.000000	96.867209  
3795.000000	96.860822  
3794.000000	96.860235  
3793.000000	96.861757  
3792.000000	96.851256  
3791.000000	96.826573  
3790.000000	96.806579  
3789.000000	96.810580  
3788.000000	96.838154  
3787.000000	96.872854  
3786.000000	96.898308  
3785.000000	96.907669  
3784.000000	96.905012  
3783.000000	96.903822  
3782.000000	96.918976  
3781.000000	96.949663  
3780.000000	96.974610  
3779.000000	96.969301  
3778.000000	96.932627  
3777.000000	96.889776  
3776.000000	96.865345  
3775.000000	96.860004  
3774.000000	96.858612  
3773.000000	96.853857  
3772.000000	96.854282  
3771.000000	96.870720  
3770.000000	96.900264  
3769.000000	96.928490  
3768.000000	96.946113  
3767.000000	96.950105  
3766.000000	96.936276  
3765.000000	96.906378  
3764.000000	96.876605  
3763.000000	96.869002  
3762.000000	96.887444  
3761.000000	96.909355  
3760.000000	96.916874  
3759.000000	96.922898  
3758.000000	96.952423  
3757.000000	97.006723  
3756.000000	97.066237  
3755.000000	97.115464  
3754.000000	97.146631  
3753.000000	97.157559  
3752.000000	97.161447  
3751.000000	97.181974  
3750.000000	97.212676  
3749.000000	97.215517  
3748.000000	97.177684  
3747.000000	97.125282  
3746.000000	97.091215  
3745.000000	97.088437  
3744.000000	97.074800  
3743.000000	97.006014  
3742.000000	96.924805  
3741.000000	96.883028  
3740.000000	96.875997  
3739.000000	96.879592  
3738.000000	96.881095  
3737.000000	96.873633  
3736.000000	96.854444  
3735.000000	96.845305  
3734.000000	96.875119  
3733.000000	96.933250  
3732.000000	96.965111  
3731.000000	96.932606  
3730.000000	96.858927  
3729.000000	96.798244  
3728.000000	96.783248  
3727.000000	96.810202  
3726.000000	96.857476  
3725.000000	96.909215  
3724.000000	96.956977  
3723.000000	96.988985  
3722.000000	96.995269  
3721.000000	96.979267  
3720.000000	96.956128  
3719.000000	96.938877  
3718.000000	96.932102  
3717.000000	96.933986  
3716.000000	96.943024  
3715.000000	96.958377  
3714.000000	96.970372  
3713.000000	96.966862  
3712.000000	96.952250  
3711.000000	96.944130  
3710.000000	96.951428  
3709.000000	96.966275  
3708.000000	96.975036  
3707.000000	96.969380  
3706.000000	96.949564  
3705.000000	96.921644  
3704.000000	96.893029  
3703.000000	96.873168  
3702.000000	96.872108  
3701.000000	96.889042  
3700.000000	96.911882  
3699.000000	96.930937  
3698.000000	96.943606  
3697.000000	96.949656  
3696.000000	96.949259  
3695.000000	96.946394  
3694.000000	96.946908  
3693.000000	96.954468  
3692.000000	96.977683  
3691.000000	97.034708  
3690.000000	97.132558  
3689.000000	97.236312  
3688.000000	97.286639  
3687.000000	97.261771  
3686.000000	97.192243  
3685.000000	97.114579  
3684.000000	97.044755  
3683.000000	96.991063  
3682.000000	96.966881  
3681.000000	96.980564  
3680.000000	97.017841  
3679.000000	97.053527  
3678.000000	97.075064  
3677.000000	97.088055  
3676.000000	97.099859  
3675.000000	97.096136  
3674.000000	97.071457  
3673.000000	97.060018  
3672.000000	97.076590  
3671.000000	97.096358  
3670.000000	97.099226  
3669.000000	97.084811  
3668.000000	97.064106  
3667.000000	97.043626  
3666.000000	97.015689  
3665.000000	96.975110  
3664.000000	96.931103  
3663.000000	96.897931  
3662.000000	96.880727  
3661.000000	96.873114  
3660.000000	96.866460  
3659.000000	96.861630  
3658.000000	96.868209  
3657.000000	96.894578  
3656.000000	96.931526  
3655.000000	96.962295  
3654.000000	96.986948  
3653.000000	97.007884  
3652.000000	97.005514  
3651.000000	96.964028  
3650.000000	96.915542  
3649.000000	96.914702  
3648.000000	96.967680  
3647.000000	97.024954  
3646.000000	97.040009  
3645.000000	97.005083  
3644.000000	96.943986  
3643.000000	96.887878  
3642.000000	96.856939  
3641.000000	96.852866  
3640.000000	96.864566  
3639.000000	96.879847  
3638.000000	96.891060  
3637.000000	96.898213  
3636.000000	96.905715  
3635.000000	96.915989  
3634.000000	96.927715  
3633.000000	96.943636  
3632.000000	96.972416  
3631.000000	97.012295  
3630.000000	97.046324  
3629.000000	97.057165  
3628.000000	97.035895  
3627.000000	96.998814  
3626.000000	96.975714  
3625.000000	96.969582  
3624.000000	96.963893  
3623.000000	96.950472  
3622.000000	96.931813  
3621.000000	96.909156  
3620.000000	96.882701  
3619.000000	96.860250  
3618.000000	96.852241  
3617.000000	96.862633  
3616.000000	96.885591  
3615.000000	96.908513  
3614.000000	96.922741  
3613.000000	96.931024  
3612.000000	96.941151  
3611.000000	96.953092  
3610.000000	96.956097  
3609.000000	96.943643  
3608.000000	96.928560  
3607.000000	96.931405  
3606.000000	96.957010  
3605.000000	96.989577  
3604.000000	97.007161  
3603.000000	96.999658  
3602.000000	96.971954  
3601.000000	96.935484  
3600.000000	96.900249  
3599.000000	96.874962  
3598.000000	96.862726  
3597.000000	96.856914  
3596.000000	96.848104  
3595.000000	96.837641  
3594.000000	96.836154  
3593.000000	96.851185  
3592.000000	96.879627  
3591.000000	96.910108  
3590.000000	96.932209  
3589.000000	96.944958  
3588.000000	96.956373  
3587.000000	96.968079  
3586.000000	96.968856  
3585.000000	96.948544  
3584.000000	96.907068  
3583.000000	96.853924  
3582.000000	96.805947  
3581.000000	96.781737  
3580.000000	96.791772  
3579.000000	96.832452  
3578.000000	96.886307  
3577.000000	96.930673  
3576.000000	96.950862  
3575.000000	96.948744  
3574.000000	96.937920  
3573.000000	96.929342  
3572.000000	96.923410  
3571.000000	96.915003  
3570.000000	96.903634  
3569.000000	96.896296  
3568.000000	96.898579  
3567.000000	96.904941  
3566.000000	96.905117  
3565.000000	96.900807  
3564.000000	96.902569  
3563.000000	96.913250  
3562.000000	96.923360  
3561.000000	96.922458  
3560.000000	96.910674  
3559.000000	96.896757  
3558.000000	96.888498  
3557.000000	96.888091  
3556.000000	96.895741  
3555.000000	96.912096  
3554.000000	96.933379  
3553.000000	96.945637  
3552.000000	96.931289  
3551.000000	96.885972  
3550.000000	96.826100  
3549.000000	96.777570  
3548.000000	96.757346  
3547.000000	96.765383  
3546.000000	96.790959  
3545.000000	96.824070  
3544.000000	96.859067  
3543.000000	96.890730  
3542.000000	96.914096  
3541.000000	96.929878  
3540.000000	96.945273  
3539.000000	96.964253  
3538.000000	96.979558  
3537.000000	96.980207  
3536.000000	96.966265  
3535.000000	96.949507  
3534.000000	96.937920  
3533.000000	96.928468  
3532.000000	96.917947  
3531.000000	96.914548  
3530.000000	96.929821  
3529.000000	96.960199  
3528.000000	96.984644  
3527.000000	96.985081  
3526.000000	96.964773  
3525.000000	96.943510  
3524.000000	96.937276  
3523.000000	96.944490  
3522.000000	96.950084  
3521.000000	96.940562  
3520.000000	96.914533  
3519.000000	96.880087  
3518.000000	96.844494  
3517.000000	96.808827  
3516.000000	96.772675  
3515.000000	96.740929  
3514.000000	96.723025  
3513.000000	96.727592  
3512.000000	96.758667  
3511.000000	96.813202  
3510.000000	96.877462  
3509.000000	96.927621  
3508.000000	96.941920  
3507.000000	96.917768  
3506.000000	96.875814  
3505.000000	96.846401  
3504.000000	96.849110  
3503.000000	96.881619  
3502.000000	96.925396  
3501.000000	96.960811  
3500.000000	96.977982  
3499.000000	96.978362  
3498.000000	96.970590  
3497.000000	96.962665  
3496.000000	96.955151  
3495.000000	96.942495  
3494.000000	96.922944  
3493.000000	96.905950  
3492.000000	96.905775  
3491.000000	96.926312  
3490.000000	96.954141  
3489.000000	96.969051  
3488.000000	96.960727  
3487.000000	96.935313  
3486.000000	96.908421  
3485.000000	96.894386  
3484.000000	96.898246  
3483.000000	96.911275  
3482.000000	96.914411  
3481.000000	96.893113  
3480.000000	96.852016  
3479.000000	96.811551  
3478.000000	96.789027  
3477.000000	96.786338  
3476.000000	96.795783  
3475.000000	96.811958  
3474.000000	96.832789  
3473.000000	96.852160  
3472.000000	96.858884  
3471.000000	96.845129  
3470.000000	96.813093  
3469.000000	96.773019  
3468.000000	96.736916  
3467.000000	96.714029  
3466.000000	96.708880  
3465.000000	96.720318  
3464.000000	96.742624  
3463.000000	96.769025  
3462.000000	96.794200  
3461.000000	96.813902  
3460.000000	96.824835  
3459.000000	96.827964  
3458.000000	96.831122  
3457.000000	96.844636  
3456.000000	96.871928  
3455.000000	96.906199  
3454.000000	96.937646  
3453.000000	96.961343  
3452.000000	96.976055  
3451.000000	96.979448  
3450.000000	96.969964  
3449.000000	96.952628  
3448.000000	96.937395  
3447.000000	96.929388  
3446.000000	96.924867  
3445.000000	96.918918  
3444.000000	96.911298  
3443.000000	96.902140  
3442.000000	96.888194  
3441.000000	96.869378  
3440.000000	96.855479  
3439.000000	96.859083  
3438.000000	96.881758  
3437.000000	96.912743  
3436.000000	96.941223  
3435.000000	96.965252  
3434.000000	96.988753  
3433.000000	97.015751  
3432.000000	97.048283  
3431.000000	97.083377  
3430.000000	97.108753  
3429.000000	97.108449  
3428.000000	97.080297  
3427.000000	97.044104  
3426.000000	97.024975  
3425.000000	97.028205  
3424.000000	97.035731  
3423.000000	97.028317  
3422.000000	97.006392  
3421.000000	96.987089  
3420.000000	96.983733  
3419.000000	96.991818  
3418.000000	96.995735  
3417.000000	96.987264  
3416.000000	96.975247  
3415.000000	96.974628  
3414.000000	96.985554  
3413.000000	96.988449  
3412.000000	96.965362  
3411.000000	96.923648  
3410.000000	96.892008  
3409.000000	96.891759  
3408.000000	96.916281  
3407.000000	96.939984  
3406.000000	96.943307  
3405.000000	96.928037  
3404.000000	96.914004  
3403.000000	96.923600  
3402.000000	96.964341  
3401.000000	97.020368  
3400.000000	97.062377  
3399.000000	97.072003  
3398.000000	97.059522  
3397.000000	97.054602  
3396.000000	97.077345  
3395.000000	97.119604  
3394.000000	97.154773  
3393.000000	97.162578  
3392.000000	97.142552  
3391.000000	97.106828  
3390.000000	97.067279  
3389.000000	97.032841  
3388.000000	97.013177  
3387.000000	97.015930  
3386.000000	97.036909  
3385.000000	97.057174  
3384.000000	97.056111  
3383.000000	97.030190  
3382.000000	96.998191  
3381.000000	96.985613  
3380.000000	97.001823  
3379.000000	97.031619  
3378.000000	97.051198  
3377.000000	97.052770  
3376.000000	97.051005  
3375.000000	97.064099  
3374.000000	97.092243  
3373.000000	97.117703  
3372.000000	97.122809  
3371.000000	97.103289  
3370.000000	97.067825  
3369.000000	97.033453  
3368.000000	97.020748  
3367.000000	97.041809  
3366.000000	97.084865  
3365.000000	97.116241  
3364.000000	97.107531  
3363.000000	97.061956  
3362.000000	97.010437  
3361.000000	96.981736  
3360.000000	96.979277  
3359.000000	96.984565  
3358.000000	96.977123  
3357.000000	96.950050  
3356.000000	96.912167  
3355.000000	96.880590  
3354.000000	96.869753  
3353.000000	96.882459  
3352.000000	96.908513  
3351.000000	96.933261  
3350.000000	96.950440  
3349.000000	96.966904  
3348.000000	96.992443  
3347.000000	97.024541  
3346.000000	97.047213  
3345.000000	97.048020  
3344.000000	97.033092  
3343.000000	97.019930  
3342.000000	97.016531  
3341.000000	97.015074  
3340.000000	97.007631  
3339.000000	97.000219  
3338.000000	97.005234  
3337.000000	97.024400  
3336.000000	97.045182  
3335.000000	97.052571  
3334.000000	97.039874  
3333.000000	97.010510  
3332.000000	96.976176  
3331.000000	96.953223  
3330.000000	96.953397  
3329.000000	96.973711  
3328.000000	96.997510  
3327.000000	97.008307  
3326.000000	97.002525  
3325.000000	96.989542  
3324.000000	96.982072  
3323.000000	96.986033  
3322.000000	96.995212  
3321.000000	96.993584  
3320.000000	96.966560  
3319.000000	96.915339  
3318.000000	96.861398  
3317.000000	96.834032  
3316.000000	96.849403  
3315.000000	96.897847  
3314.000000	96.949783  
3313.000000	96.975883  
3312.000000	96.965758  
3311.000000	96.931081  
3310.000000	96.893415  
3309.000000	96.870504  
3308.000000	96.871946  
3307.000000	96.900353  
3306.000000	96.949328  
3305.000000	97.001196  
3304.000000	97.034959  
3303.000000	97.042238  
3302.000000	97.033598  
3301.000000	97.025896  
3300.000000	97.025196  
3299.000000	97.025432  
3298.000000	97.020894  
3297.000000	97.013111  
3296.000000	97.003947  
3295.000000	96.989094  
3294.000000	96.965206  
3293.000000	96.940520  
3292.000000	96.930089  
3291.000000	96.938171  
3290.000000	96.951336  
3289.000000	96.952532  
3288.000000	96.936898  
3287.000000	96.910199  
3286.000000	96.878586  
3285.000000	96.849051  
3284.000000	96.836614  
3283.000000	96.857205  
3282.000000	96.907383  
3281.000000	96.959192  
3280.000000	96.983698  
3279.000000	96.977497  
3278.000000	96.961397  
3277.000000	96.956429  
3276.000000	96.966787  
3275.000000	96.983881  
3274.000000	96.999058  
3273.000000	97.009605  
3272.000000	97.016707  
3271.000000	97.021073  
3270.000000	97.020279  
3269.000000	97.010041  
3268.000000	96.988538  
3267.000000	96.958641  
3266.000000	96.925425  
3265.000000	96.894117  
3264.000000	96.872074  
3263.000000	96.867970  
3262.000000	96.883120  
3261.000000	96.905304  
3260.000000	96.917512  
3259.000000	96.914215  
3258.000000	96.905958  
3257.000000	96.907847  
3256.000000	96.926472  
3255.000000	96.956754  
3254.000000	96.985862  
3253.000000	96.999848  
3252.000000	96.992964  
3251.000000	96.974260  
3250.000000	96.961648  
3249.000000	96.966242  
3248.000000	96.983912  
3247.000000	97.002476  
3246.000000	97.013390  
3245.000000	97.015208  
3244.000000	97.010947  
3243.000000	97.005818  
3242.000000	97.003760  
3241.000000	97.002548  
3240.000000	96.996121  
3239.000000	96.985620  
3238.000000	96.983088  
3237.000000	96.996969  
3236.000000	97.016865  
3235.000000	97.022034  
3234.000000	97.005503  
3233.000000	96.980860  
3232.000000	96.962653  
3231.000000	96.949426  
3230.000000	96.932749  
3229.000000	96.916075  
3228.000000	96.913967  
3227.000000	96.932727  
3226.000000	96.959483  
3225.000000	96.972581  
3224.000000	96.959034  
3223.000000	96.921910  
3222.000000	96.875982  
3221.000000	96.838256  
3220.000000	96.818204  
3219.000000	96.813180  
3218.000000	96.814614  
3217.000000	96.819749  
3216.000000	96.834693  
3215.000000	96.864585  
3214.000000	96.903764  
3213.000000	96.937907  
3212.000000	96.953645  
3211.000000	96.944981  
3210.000000	96.915524  
3209.000000	96.879744  
3208.000000	96.858784  
3207.000000	96.866162  
3206.000000	96.893631  
3205.000000	96.915160  
3204.000000	96.910330  
3203.000000	96.884346  
3202.000000	96.862505  
3201.000000	96.864806  
3200.000000	96.888112  
3199.000000	96.913096  
3198.000000	96.925233  
3197.000000	96.925942  
3196.000000	96.925342  
3195.000000	96.930540  
3194.000000	96.943625  
3193.000000	96.965592  
3192.000000	96.995705  
3191.000000	97.028323  
3190.000000	97.055772  
3189.000000	97.074060  
3188.000000	97.080688  
3187.000000	97.068044  
3186.000000	97.027946  
3185.000000	96.965951  
3184.000000	96.903244  
3183.000000	96.858436  
3182.000000	96.833000  
3181.000000	96.819260  
3180.000000	96.815238  
3179.000000	96.822953  
3178.000000	96.837203  
3177.000000	96.848154  
3176.000000	96.855149  
3175.000000	96.867371  
3174.000000	96.887954  
3173.000000	96.905439  
3172.000000	96.904740  
3171.000000	96.881477  
3170.000000	96.843626  
3169.000000	96.805402  
3168.000000	96.781887  
3167.000000	96.782364  
3166.000000	96.802914  
3165.000000	96.828353  
3164.000000	96.844764  
3163.000000	96.847715  
3162.000000	96.838241  
3161.000000	96.818038  
3160.000000	96.793053  
3159.000000	96.776202  
3158.000000	96.779578  
3157.000000	96.804407  
3156.000000	96.840230  
3155.000000	96.870597  
3154.000000	96.879550  
3153.000000	96.861831  
3152.000000	96.832936  
3151.000000	96.821217  
3150.000000	96.839853  
3149.000000	96.869920  
3148.000000	96.880011  
3147.000000	96.859954  
3146.000000	96.826244  
3145.000000	96.798140  
3144.000000	96.782051  
3143.000000	96.780058  
3142.000000	96.797801  
3141.000000	96.834053  
3140.000000	96.871702  
3139.000000	96.891132  
3138.000000	96.890497  
3137.000000	96.884566  
3136.000000	96.884287  
3135.000000	96.884737  
3134.000000	96.874884  
3133.000000	96.853715  
3132.000000	96.832152  
3131.000000	96.819762  
3130.000000	96.812975  
3129.000000	96.799185  
3128.000000	96.773409  
3127.000000	96.748327  
3126.000000	96.742946  
3125.000000	96.760147  
3124.000000	96.780098  
3123.000000	96.779845  
3122.000000	96.757898  
3121.000000	96.736275  
3120.000000	96.739272  
3119.000000	96.771620  
3118.000000	96.814028  
3117.000000	96.837016  
3116.000000	96.823301  
3115.000000	96.782902  
3114.000000	96.745901  
3113.000000	96.735612  
3112.000000	96.748594  
3111.000000	96.764406  
3110.000000	96.773162  
3109.000000	96.785163  
3108.000000	96.810079  
3107.000000	96.835091  
3106.000000	96.833542  
3105.000000	96.795224  
3104.000000	96.741340  
3103.000000	96.706302  
3102.000000	96.706788  
3101.000000	96.729611  
3100.000000	96.747764  
3099.000000	96.746424  
3098.000000	96.734014  
3097.000000	96.730628  
3096.000000	96.747081  
3095.000000	96.774470  
3094.000000	96.792819  
3093.000000	96.788650  
3092.000000	96.764420  
3091.000000	96.734138  
3090.000000	96.712749  
3089.000000	96.708123  
3088.000000	96.717722  
3087.000000	96.729102  
3086.000000	96.725683  
3085.000000	96.697963  
3084.000000	96.652798  
3083.000000	96.610431  
3082.000000	96.588793  
3081.000000	96.588290  
3080.000000	96.592078  
3079.000000	96.582827  
3078.000000	96.559844  
3077.000000	96.539399  
3076.000000	96.537968  
3075.000000	96.555616  
3074.000000	96.576300  
3073.000000	96.583445  
3072.000000	96.573828  
3071.000000	96.557031  
3070.000000	96.544248  
3069.000000	96.539641  
3068.000000	96.540178  
3067.000000	96.539643  
3066.000000	96.532263  
3065.000000	96.515870  
3064.000000	96.494111  
3063.000000	96.474114  
3062.000000	96.459944  
3061.000000	96.449513  
3060.000000	96.439495  
3059.000000	96.431237  
3058.000000	96.428263  
3057.000000	96.428897  
3056.000000	96.426295  
3055.000000	96.417186  
3054.000000	96.405808  
3053.000000	96.395864  
3052.000000	96.383086  
3051.000000	96.362047  
3050.000000	96.338759  
3049.000000	96.328372  
3048.000000	96.336977  
3047.000000	96.350594  
3046.000000	96.347172  
3045.000000	96.316790  
3044.000000	96.266251  
3043.000000	96.207223  
3042.000000	96.146567  
3041.000000	96.088424  
3040.000000	96.038428  
3039.000000	96.000906  
3038.000000	95.973780  
3037.000000	95.948516  
3036.000000	95.914084  
3035.000000	95.861679  
3034.000000	95.790674  
3033.000000	95.712851  
3032.000000	95.645692  
3031.000000	95.595041  
3030.000000	95.545422  
3029.000000	95.472136  
3028.000000	95.362788  
3027.000000	95.223712  
3026.000000	95.068350  
3025.000000	94.905984  
3024.000000	94.742259  
3023.000000	94.581526  
3022.000000	94.420269  
3021.000000	94.240817  
3020.000000	94.020819  
3019.000000	93.754267  
3018.000000	93.461240  
3017.000000	93.173115  
3016.000000	92.908236  
3015.000000	92.663817  
3014.000000	92.430470  
3013.000000	92.209862  
3012.000000	92.016407  
3011.000000	91.865363  
3010.000000	91.764572  
3009.000000	91.717057  
3008.000000	91.725414  
3007.000000	91.789165  
3006.000000	91.899675  
3005.000000	92.042349  
3004.000000	92.205066  
3003.000000	92.382721  
3002.000000	92.573065  
3001.000000	92.770228  
3000.000000	92.963325  
2999.000000	93.140038  
2998.000000	93.290746  
2997.000000	93.411035  
2996.000000	93.502338  
2995.000000	93.570667  
2994.000000	93.624073  
2993.000000	93.669559  
2992.000000	93.710048  
2991.000000	93.743198  
2990.000000	93.764758  
2989.000000	93.774454  
2988.000000	93.776508  
2987.000000	93.771644  
2986.000000	93.750622  
2985.000000	93.700732  
2984.000000	93.620106  
2983.000000	93.521730  
2982.000000	93.420100  
2981.000000	93.314860  
2980.000000	93.189223  
2979.000000	93.024679  
2978.000000	92.816648  
2977.000000	92.576881  
2976.000000	92.322053  
2975.000000	92.060111  
2974.000000	91.785318  
2973.000000	91.482941  
2972.000000	91.136507  
2971.000000	90.734191  
2970.000000	90.275664  
2969.000000	89.776615  
2968.000000	89.261739  
2967.000000	88.747205  
2966.000000	88.229832  
2965.000000	87.697374  
2964.000000	87.148619  
2963.000000	86.600500  
2962.000000	86.076874  
2961.000000	85.594134  
2960.000000	85.156129  
2959.000000	84.756153  
2958.000000	84.382180  
2957.000000	84.026068  
2956.000000	83.692168  
2955.000000	83.395221  
2954.000000	83.148506  
2953.000000	82.956267  
2952.000000	82.816647  
2951.000000	82.723308  
2950.000000	82.658029  
2949.000000	82.586050  
2948.000000	82.467249  
2947.000000	82.273103  
2946.000000	81.990949  
2945.000000	81.614179  
2944.000000	81.134116  
2943.000000	80.542338  
2942.000000	79.838260  
2941.000000	79.033750  
2940.000000	78.150545  
2939.000000	77.210365  
2938.000000	76.224160  
2937.000000	75.192069  
2936.000000	74.115314  
2935.000000	73.006755  
2934.000000	71.889017  
2933.000000	70.787501  
2932.000000	69.728987  
2931.000000	68.740895  
2930.000000	67.843396  
2929.000000	67.043723  
2928.000000	66.348058  
2927.000000	65.780728  
2926.000000	65.383516  
2925.000000	65.192932  
2924.000000	65.223749  
2923.000000	65.475120  
2922.000000	65.940874  
2921.000000	66.606889  
2920.000000	67.445397  
2919.000000	68.418534  
2918.000000	69.483835  
2917.000000	70.592882  
2916.000000	71.693047  
2915.000000	72.740728  
2914.000000	73.714413  
2913.000000	74.613514  
2912.000000	75.447560  
2911.000000	76.228784  
2910.000000	76.970627  
2909.000000	77.685094  
2908.000000	78.377213  
2907.000000	79.042177  
2906.000000	79.670616  
2905.000000	80.259856  
2904.000000	80.819616  
2903.000000	81.363199  
2902.000000	81.892682  
2901.000000	82.399287  
2900.000000	82.881836  
2899.000000	83.357268  
2898.000000	83.842894  
2897.000000	84.332066  
2896.000000	84.798928  
2895.000000	85.228247  
2894.000000	85.629690  
2893.000000	86.018866  
2892.000000	86.394661  
2891.000000	86.742897  
2890.000000	87.055691  
2889.000000	87.337798  
2888.000000	87.596262  
2887.000000	87.831436  
2886.000000	88.039179  
2885.000000	88.216945  
2884.000000	88.365517  
2883.000000	88.485135  
2882.000000	88.568654  
2881.000000	88.598021  
2880.000000	88.551161  
2879.000000	88.416669  
2878.000000	88.201652  
2877.000000	87.925497  
2876.000000	87.610806  
2875.000000	87.284214  
2874.000000	86.979651  
2873.000000	86.727983  
2872.000000	86.536862  
2871.000000	86.381731  
2870.000000	86.217917  
2869.000000	85.999534  
2868.000000	85.688124  
2867.000000	85.252482  
2866.000000	84.671006  
2865.000000	83.938409  
2864.000000	83.066799  
2863.000000	82.075936  
2862.000000	80.982924  
2861.000000	79.804551  
2860.000000	78.571904  
2859.000000	77.342642  
2858.000000	76.198284  
2857.000000	75.231793  
2856.000000	74.534800  
2855.000000	74.187532  
2854.000000	74.242638  
2853.000000	74.707081  
2852.000000	75.538344  
2851.000000	76.660738  
2850.000000	77.985783  
2849.000000	79.421319  
2848.000000	80.876887  
2847.000000	82.278269  
2846.000000	83.583379  
2845.000000	84.781163  
2844.000000	85.874022  
2843.000000	86.863558  
2842.000000	87.752328  
2841.000000	88.550496  
2840.000000	89.271125  
2839.000000	89.917561  
2838.000000	90.481630  
2837.000000	90.958581  
2836.000000	91.360905  
2835.000000	91.713202  
2834.000000	92.035369  
2833.000000	92.334951  
2832.000000	92.613769  
2831.000000	92.874880  
2830.000000	93.120862  
2829.000000	93.350690  
2828.000000	93.561894  
2827.000000	93.752983  
2826.000000	93.921974  
2825.000000	94.067327  
2824.000000	94.194592  
2823.000000	94.318166  
2822.000000	94.450301  
2821.000000	94.588287  
2820.000000	94.716475  
2819.000000	94.820698  
2818.000000	94.899183  
2817.000000	94.962420  
2816.000000	95.027047  
2815.000000	95.106925  
2814.000000	95.202644  
2813.000000	95.298517  
2812.000000	95.375639  
2811.000000	95.429673  
2810.000000	95.472378  
2809.000000	95.516374  
2808.000000	95.564712  
2807.000000	95.615790  
2806.000000	95.669603  
2805.000000	95.724192  
2804.000000	95.772119  
2803.000000	95.806778  
2802.000000	95.828990  
2801.000000	95.842810  
2800.000000	95.849741  
2799.000000	95.853400  
2798.000000	95.865054  
2797.000000	95.894440  
2796.000000	95.934942  
2795.000000	95.966680  
2794.000000	95.977282  
2793.000000	95.973970  
2792.000000	95.973612  
2791.000000	95.987008  
2790.000000	96.015609  
2789.000000	96.056296  
2788.000000	96.102623  
2787.000000	96.144490  
2786.000000	96.172936  
2785.000000	96.185637  
2784.000000	96.185615  
2783.000000	96.177287  
2782.000000	96.167579  
2781.000000	96.167752  
2780.000000	96.187024  
2779.000000	96.222870  
2778.000000	96.261640  
2777.000000	96.290146  
2776.000000	96.304485  
2775.000000	96.308086  
2774.000000	96.306449  
2773.000000	96.306109  
2772.000000	96.314187  
2771.000000	96.333247  
2770.000000	96.356233  
2769.000000	96.369940  
2768.000000	96.365644  
2767.000000	96.346690  
2766.000000	96.325754  
2765.000000	96.315165  
2764.000000	96.319526  
2763.000000	96.336379  
2762.000000	96.361787  
2761.000000	96.392396  
2760.000000	96.421727  
2759.000000	96.438726  
2758.000000	96.435839  
2757.000000	96.419416  
2756.000000	96.407593  
2755.000000	96.413781  
2754.000000	96.433059  
2753.000000	96.446944  
2752.000000	96.441679  
2751.000000	96.420515  
2750.000000	96.398695  
2749.000000	96.388579  
2748.000000	96.390995  
2747.000000	96.400047  
2746.000000	96.412478  
2745.000000	96.428413  
2744.000000	96.443931  
2743.000000	96.450227  
2742.000000	96.445410  
2741.000000	96.442312  
2740.000000	96.455309  
2739.000000	96.479127  
2738.000000	96.489846  
2737.000000	96.471496  
2736.000000	96.435308  
2735.000000	96.407262  
2734.000000	96.401325  
2733.000000	96.410769  
2732.000000	96.421885  
2731.000000	96.428784  
2730.000000	96.435598  
2729.000000	96.450026  
2728.000000	96.474602  
2727.000000	96.500135  
2726.000000	96.509226  
2725.000000	96.491768  
2724.000000	96.456483  
2723.000000	96.422412  
2722.000000	96.400497  
2721.000000	96.388954  
2720.000000	96.384944  
2719.000000	96.391296  
2718.000000	96.408878  
2717.000000	96.429497  
2716.000000	96.441653  
2715.000000	96.440780  
2714.000000	96.431938  
2713.000000	96.426250  
2712.000000	96.435228  
2711.000000	96.462304  
2710.000000	96.496051  
2709.000000	96.516623  
2708.000000	96.513478  
2707.000000	96.494488  
2706.000000	96.474701  
2705.000000	96.460320  
2704.000000	96.447022  
2703.000000	96.430268  
2702.000000	96.412504  
2701.000000	96.401990  
2700.000000	96.407084  
2699.000000	96.428716  
2698.000000	96.455692  
2697.000000	96.471453  
2696.000000	96.469562  
2695.000000	96.459549  
2694.000000	96.454072  
2693.000000	96.455044  
2692.000000	96.456783  
2691.000000	96.457239  
2690.000000	96.457620  
2689.000000	96.453875  
2688.000000	96.438344  
2687.000000	96.410922  
2686.000000	96.381277  
2685.000000	96.358375  
2684.000000	96.344322  
2683.000000	96.340060  
2682.000000	96.349299  
2681.000000	96.371495  
2680.000000	96.395423  
2679.000000	96.405899  
2678.000000	96.397350  
2677.000000	96.379300  
2676.000000	96.369815  
2675.000000	96.383179  
2674.000000	96.419352  
2673.000000	96.461682  
2672.000000	96.487471  
2671.000000	96.485020  
2670.000000	96.461405  
2669.000000	96.433936  
2668.000000	96.416209  
2667.000000	96.412947  
2666.000000	96.423173  
2665.000000	96.442242  
2664.000000	96.460654  
2663.000000	96.467023  
2662.000000	96.457880  
2661.000000	96.444478  
2660.000000	96.444966  
2659.000000	96.466064  
2658.000000	96.494064  
2657.000000	96.508484  
2656.000000	96.504387  
2655.000000	96.495782  
2654.000000	96.495815  
2653.000000	96.501483  
2652.000000	96.504049  
2651.000000	96.506903  
2650.000000	96.521075  
2649.000000	96.544195  
2648.000000	96.557194  
2647.000000	96.547102  
2646.000000	96.524359  
2645.000000	96.510640  
2644.000000	96.515322  
2643.000000	96.530196  
2642.000000	96.541775  
2641.000000	96.541433  
2640.000000	96.527836  
2639.000000	96.509045  
2638.000000	96.501470  
2637.000000	96.517710  
2636.000000	96.552463  
2635.000000	96.585210  
2634.000000	96.598359  
2633.000000	96.589845  
2632.000000	96.569342  
2631.000000	96.548246  
2630.000000	96.533948  
2629.000000	96.527042  
2628.000000	96.520960  
2627.000000	96.509002  
2626.000000	96.494741  
2625.000000	96.491606  
2624.000000	96.509628  
2623.000000	96.546059  
2622.000000	96.590563  
2621.000000	96.633921  
2620.000000	96.667469  
2619.000000	96.680113  
2618.000000	96.665036  
2617.000000	96.629865  
2616.000000	96.594275  
2615.000000	96.575421  
2614.000000	96.577492  
2613.000000	96.593251  
2612.000000	96.610568  
2611.000000	96.618233  
2610.000000	96.612696  
2609.000000	96.602983  
2608.000000	96.604954  
2607.000000	96.626362  
2606.000000	96.658332  
2605.000000	96.683222  
2604.000000	96.689559  
2603.000000	96.678873  
2602.000000	96.661737  
2601.000000	96.649956  
2600.000000	96.649426  
2599.000000	96.656229  
2598.000000	96.660601  
2597.000000	96.657814  
2596.000000	96.653724  
2595.000000	96.655868  
2594.000000	96.660719  
2593.000000	96.655898  
2592.000000	96.636994  
2591.000000	96.617065  
2590.000000	96.614656  
2589.000000	96.633828  
2588.000000	96.659834  
2587.000000	96.674574  
2586.000000	96.673260  
2585.000000	96.664962  
2584.000000	96.659795  
2583.000000	96.659271  
2582.000000	96.659512  
2581.000000	96.660626  
2580.000000	96.669339  
2579.000000	96.691593  
2578.000000	96.723746  
2577.000000	96.752118  
2576.000000	96.762427  
2575.000000	96.752220  
2574.000000	96.735791  
2573.000000	96.733980  
2572.000000	96.753629  
2571.000000	96.776758  
2570.000000	96.776283  
2569.000000	96.745954  
2568.000000	96.709678  
2567.000000	96.695792  
2566.000000	96.706161  
2565.000000	96.717810  
2564.000000	96.712951  
2563.000000	96.697859  
2562.000000	96.689517  
2561.000000	96.692341  
2560.000000	96.695511  
2559.000000	96.689647  
2558.000000	96.677860  
2557.000000	96.668434  
2556.000000	96.661936  
2555.000000	96.651200  
2554.000000	96.635197  
2553.000000	96.629028  
2552.000000	96.653825  
2551.000000	96.713061  
2550.000000	96.780999  
2549.000000	96.819297  
2548.000000	96.807545  
2547.000000	96.758547  
2546.000000	96.707354  
2545.000000	96.687769  
2544.000000	96.712234  
2543.000000	96.762948  
2542.000000	96.801189  
2541.000000	96.795836  
2540.000000	96.750494  
2539.000000	96.699760  
2538.000000	96.676023  
2537.000000	96.683762  
2536.000000	96.706567  
2535.000000	96.729593  
2534.000000	96.747659  
2533.000000	96.758779  
2532.000000	96.761611  
2531.000000	96.757819  
2530.000000	96.747464  
2529.000000	96.722916  
2528.000000	96.677463  
2527.000000	96.621324  
2526.000000	96.579101  
2525.000000	96.567371  
2524.000000	96.582661  
2523.000000	96.614555  
2522.000000	96.659698  
2521.000000	96.714774  
2520.000000	96.765139  
2519.000000	96.794230  
2518.000000	96.802107  
2517.000000	96.803021  
2516.000000	96.804657  
2515.000000	96.800996  
2514.000000	96.787563  
2513.000000	96.771610  
2512.000000	96.760869  
2511.000000	96.752294  
2510.000000	96.741537  
2509.000000	96.737238  
2508.000000	96.754284  
2507.000000	96.793917  
2506.000000	96.839912  
2505.000000	96.875609  
2504.000000	96.897406  
2503.000000	96.909188  
2502.000000	96.910121  
2501.000000	96.893503  
2500.000000	96.856828  
2499.000000	96.811010  
2498.000000	96.777915  
2497.000000	96.773756  
2496.000000	96.791130  
2495.000000	96.802575  
2494.000000	96.789035  
2493.000000	96.761163  
2492.000000	96.743434  
2491.000000	96.741744  
2490.000000	96.741580  
2489.000000	96.738265  
2488.000000	96.749976  
2487.000000	96.790347  
2486.000000	96.842520  
2485.000000	96.875535  
2484.000000	96.879349  
2483.000000	96.868987  
2482.000000	96.858924  
2481.000000	96.850043  
2480.000000	96.841253  
2479.000000	96.837175  
2478.000000	96.838194  
2477.000000	96.834430  
2476.000000	96.817542  
2475.000000	96.792291  
2474.000000	96.770459  
2473.000000	96.758295  
2472.000000	96.755234  
2471.000000	96.761175  
2470.000000	96.778783  
2469.000000	96.808591  
2468.000000	96.844346  
2467.000000	96.873008  
2466.000000	96.879665  
2465.000000	96.856669  
2464.000000	96.811650  
2463.000000	96.765481  
2462.000000	96.739252  
2461.000000	96.740352  
2460.000000	96.758721  
2459.000000	96.776684  
2458.000000	96.785284  
2457.000000	96.792661  
2456.000000	96.813471  
2455.000000	96.848742  
2454.000000	96.881247  
2453.000000	96.894664  
2452.000000	96.891939  
2451.000000	96.888079  
2450.000000	96.888926  
2449.000000	96.885848  
2448.000000	96.869792  
2447.000000	96.841967  
2446.000000	96.810443  
2445.000000	96.784318  
2444.000000	96.772033  
2443.000000	96.777330  
2442.000000	96.793970  
2441.000000	96.809953  
2440.000000	96.819591  
2439.000000	96.827751  
2438.000000	96.841640  
2437.000000	96.861697  
2436.000000	96.879050  
2435.000000	96.878295  
2434.000000	96.848440  
2433.000000	96.800431  
2432.000000	96.769689  
2431.000000	96.787039  
2430.000000	96.844759  
2429.000000	96.901324  
2428.000000	96.922436  
2427.000000	96.908100  
2426.000000	96.879802  
2425.000000	96.856642  
2424.000000	96.849369  
2423.000000	96.861173  
2422.000000	96.881711  
2421.000000	96.890136  
2420.000000	96.876430  
2419.000000	96.853315  
2418.000000	96.837880  
2417.000000	96.829787  
2416.000000	96.819126  
2415.000000	96.807659  
2414.000000	96.806918  
2413.000000	96.818298  
2412.000000	96.829087  
2411.000000	96.828157  
2410.000000	96.814461  
2409.000000	96.791672  
2408.000000	96.767463  
2407.000000	96.757691  
2406.000000	96.775432  
2405.000000	96.810271  
2404.000000	96.831445  
2403.000000	96.820241  
2402.000000	96.791281  
2401.000000	96.774556  
2400.000000	96.783556  
2399.000000	96.807914  
2398.000000	96.830144  
2397.000000	96.840059  
2396.000000	96.837114  
2395.000000	96.829287  
2394.000000	96.829326  
2393.000000	96.843580  
2392.000000	96.862740  
2391.000000	96.869200  
2390.000000	96.854549  
2389.000000	96.824857  
2388.000000	96.788883  
2387.000000	96.747862  
2386.000000	96.699108  
2385.000000	96.643951  
2384.000000	96.589251  
2383.000000	96.546082  
2382.000000	96.529351  
2381.000000	96.550237  
2380.000000	96.600367  
2379.000000	96.649204  
2378.000000	96.669686  
2377.000000	96.664313  
2376.000000	96.650955  
2375.000000	96.625253  
2374.000000	96.563941  
2373.000000	96.477749  
2372.000000	96.431044  
2371.000000	96.479841  
2370.000000	96.604815  
2369.000000	96.729343  
2368.000000	96.785064  
2367.000000	96.736054  
2366.000000	96.578887  
2365.000000	96.379287  
2364.000000	96.276024  
2363.000000	96.363825  
2362.000000	96.571273  
2361.000000	96.726822  
2360.000000	96.746765  
2359.000000	96.682709  
2358.000000	96.606939  
2357.000000	96.549377  
2356.000000	96.537140  
2355.000000	96.598572  
2354.000000	96.698147  
2353.000000	96.749439  
2352.000000	96.706935  
2351.000000	96.611365  
2350.000000	96.544385  
2349.000000	96.555246  
2348.000000	96.630833  
2347.000000	96.703571  
2346.000000	96.705448  
2345.000000	96.640431  
2344.000000	96.572096  
2343.000000	96.557000  
2342.000000	96.591909  
2341.000000	96.633650  
2340.000000	96.648199  
2339.000000	96.640360  
2338.000000	96.640079  
2337.000000	96.662089  
2336.000000	96.697680  
2335.000000	96.724618  
2334.000000	96.726046  
2333.000000	96.695059  
2332.000000	96.652260  
2331.000000	96.634213  
2330.000000	96.674360  
2329.000000	96.762430  
2328.000000	96.862924  
2327.000000	96.930109  
2326.000000	96.927552  
2325.000000	96.845174  
2324.000000	96.721008  
2323.000000	96.633973  
2322.000000	96.635946  
2321.000000	96.705069  
2320.000000	96.778735  
2319.000000	96.818646  
2318.000000	96.828815  
2317.000000	96.817441  
2316.000000	96.784757  
2315.000000	96.725592  
2314.000000	96.647661  
2313.000000	96.562240  
2312.000000	96.488626  
2311.000000	96.444481  
2310.000000	96.441803  
2309.000000	96.470460  
2308.000000	96.511062  
2307.000000	96.549414  
2306.000000	96.585681  
2305.000000	96.620025  
2304.000000	96.649074  
2303.000000	96.668207  
2302.000000	96.677762  
2301.000000	96.675439  
2300.000000	96.658823  
2299.000000	96.630920  
2298.000000	96.607403  
2297.000000	96.603628  
2296.000000	96.622571  
2295.000000	96.651531  
2294.000000	96.677035  
2293.000000	96.696266  
2292.000000	96.715882  
2291.000000	96.738700  
2290.000000	96.757667  
2289.000000	96.766927  
2288.000000	96.773887  
2287.000000	96.790476  
2286.000000	96.809886  
2285.000000	96.806597  
2284.000000	96.768195  
2283.000000	96.719499  
2282.000000	96.699090  
2281.000000	96.715358  
2280.000000	96.740174  
2279.000000	96.750205  
2278.000000	96.757563  
2277.000000	96.788406  
2276.000000	96.842080  
2275.000000	96.887281  
2274.000000	96.897353  
2273.000000	96.874996  
2272.000000	96.838773  
2271.000000	96.797077  
2270.000000	96.747886  
2269.000000	96.699003  
2268.000000	96.671431  
2267.000000	96.673904  
2266.000000	96.683912  
2265.000000	96.668981  
2264.000000	96.627942  
2263.000000	96.597783  
2262.000000	96.612800  
2261.000000	96.665357  
2260.000000	96.714925  
2259.000000	96.732138  
2258.000000	96.723881  
2257.000000	96.717178  
2256.000000	96.728840  
2255.000000	96.755155  
2254.000000	96.784332  
2253.000000	96.809631  
2252.000000	96.829612  
2251.000000	96.841163  
2250.000000	96.839223  
2249.000000	96.823925  
2248.000000	96.804090  
2247.000000	96.791207  
2246.000000	96.792648  
2245.000000	96.811077  
2244.000000	96.843293  
2243.000000	96.875017  
2242.000000	96.884981  
2241.000000	96.865651  
2240.000000	96.837286  
2239.000000	96.830084  
2238.000000	96.851542  
2237.000000	96.878595  
2236.000000	96.881399  
2235.000000	96.849363  
2234.000000	96.799778  
2233.000000	96.770882  
2232.000000	96.795785  
2231.000000	96.862751  
2230.000000	96.905854  
2229.000000	96.862769  
2228.000000	96.747085  
2227.000000	96.635482  
2226.000000	96.576507  
2225.000000	96.543989  
2224.000000	96.498883  
2223.000000	96.466106  
2222.000000	96.509779  
2221.000000	96.640276  
2220.000000	96.784387  
2219.000000	96.858632  
2218.000000	96.849939  
2217.000000	96.814546  
2216.000000	96.813197  
2215.000000	96.859904  
2214.000000	96.926124  
2213.000000	96.978897  
2212.000000	97.007300  
2211.000000	97.014761  
2210.000000	96.999498  
2209.000000	96.958146  
2208.000000	96.904812  
2207.000000	96.866234  
2206.000000	96.852895  
2205.000000	96.851203  
2204.000000	96.850039  
2203.000000	96.854482  
2202.000000	96.861245  
2201.000000	96.843882  
2200.000000	96.786136  
2199.000000	96.715689  
2198.000000	96.680325  
2197.000000	96.697138  
2196.000000	96.743241  
2195.000000	96.786343  
2194.000000	96.801824  
2193.000000	96.772801  
2192.000000	96.705746  
2191.000000	96.641415  
2190.000000	96.618292  
2189.000000	96.624181  
2188.000000	96.616184  
2187.000000	96.592867  
2186.000000	96.606718  
2185.000000	96.686337  
2184.000000	96.780885  
2183.000000	96.815499  
2182.000000	96.784261  
2181.000000	96.757322  
2180.000000	96.802668  
2179.000000	96.925849  
2178.000000	97.074839  
2177.000000	97.171275  
2176.000000	97.144706  
2175.000000	96.976447  
2174.000000	96.730137  
2173.000000	96.524144  
2172.000000	96.452738  
2171.000000	96.528743  
2170.000000	96.691892  
2169.000000	96.854536  
2168.000000	96.944553  
2167.000000	96.931653  
2166.000000	96.836425  
2165.000000	96.713744  
2164.000000	96.609574  
2163.000000	96.532021  
2162.000000	96.474740  
2161.000000	96.456068  
2160.000000	96.504379  
2159.000000	96.600440  
2158.000000	96.673253  
2157.000000	96.676944  
2156.000000	96.641198  
2155.000000	96.628046  
2154.000000	96.666129  
2153.000000	96.734063  
2152.000000	96.783652  
2151.000000	96.768432  
2150.000000	96.671879  
2149.000000	96.532224  
2148.000000	96.429423  
2147.000000	96.426363  
2146.000000	96.522160  
2145.000000	96.663442  
2144.000000	96.786590  
2143.000000	96.842159  
2142.000000	96.807212  
2141.000000	96.709120  
2140.000000	96.624830  
2139.000000	96.620535  
2138.000000	96.689605  
2137.000000	96.768660  
2136.000000	96.810935  
2135.000000	96.818525  
2134.000000	96.807815  
2133.000000	96.783675  
2132.000000	96.757081  
2131.000000	96.751958  
2130.000000	96.774386  
2129.000000	96.796312  
2128.000000	96.788044  
2127.000000	96.752995  
2126.000000	96.716357  
2125.000000	96.694188  
2124.000000	96.689656  
2123.000000	96.707310  
2122.000000	96.749588  
2121.000000	96.801409  
2120.000000	96.835022  
2119.000000	96.832638  
2118.000000	96.796484  
2117.000000	96.739869  
2116.000000	96.677530  
2115.000000	96.622775  
2114.000000	96.585926  
2113.000000	96.574628  
2112.000000	96.596436  
2111.000000	96.652415  
2110.000000	96.721855  
2109.000000	96.766091  
2108.000000	96.764848  
2107.000000	96.743697  
2106.000000	96.748400  
2105.000000	96.791833  
2104.000000	96.839913  
2103.000000	96.851795  
2102.000000	96.820519  
2101.000000	96.770542  
2100.000000	96.728272  
2099.000000	96.704327  
2098.000000	96.696793  
2097.000000	96.698874  
2096.000000	96.701694  
2095.000000	96.696535  
2094.000000	96.678472  
2093.000000	96.646981  
2092.000000	96.603244  
2091.000000	96.551005  
2090.000000	96.502800  
2089.000000	96.479380  
2088.000000	96.492367  
2087.000000	96.526709  
2086.000000	96.551773  
2085.000000	96.557741  
2084.000000	96.571535  
2083.000000	96.621997  
2082.000000	96.694116  
2081.000000	96.736617  
2080.000000	96.718874  
2079.000000	96.663683  
2078.000000	96.617431  
2077.000000	96.602163  
2076.000000	96.604889  
2075.000000	96.602343  
2074.000000	96.585053  
2073.000000	96.563566  
2072.000000	96.559885  
2071.000000	96.587219  
2070.000000	96.631685  
2069.000000	96.659853  
2068.000000	96.650139  
2067.000000	96.612146  
2066.000000	96.574550  
2065.000000	96.562295  
2064.000000	96.582554  
2063.000000	96.618086  
2062.000000	96.632250  
2061.000000	96.599562  
2060.000000	96.541681  
2059.000000	96.515508  
2058.000000	96.554152  
2057.000000	96.633107  
2056.000000	96.703856  
2055.000000	96.742851  
2054.000000	96.750637  
2053.000000	96.720754  
2052.000000	96.638798  
2051.000000	96.512598  
2050.000000	96.386145  
2049.000000	96.315711  
2048.000000	96.329399  
2047.000000	96.406360  
2046.000000	96.491339  
2045.000000	96.536129  
2044.000000	96.539081  
2043.000000	96.537491  
2042.000000	96.554207  
2041.000000	96.567373  
2040.000000	96.548317  
2039.000000	96.512862  
2038.000000	96.508253  
2037.000000	96.553255  
2036.000000	96.610697  
2035.000000	96.624507  
2034.000000	96.574976  
2033.000000	96.498036  
2032.000000	96.454708  
2031.000000	96.475770  
2030.000000	96.531526  
2029.000000	96.560355  
2028.000000	96.533222  
2027.000000	96.478586  
2026.000000	96.440737  
2025.000000	96.434768  
2024.000000	96.451978  
2023.000000	96.488742  
2022.000000	96.547058  
2021.000000	96.614283  
2020.000000	96.660741  
2019.000000	96.658459  
2018.000000	96.600441  
2017.000000	96.514632  
2016.000000	96.458183  
2015.000000	96.476370  
2014.000000	96.558002  
2013.000000	96.639964  
2012.000000	96.664266  
2011.000000	96.623856  
2010.000000	96.551108  
2009.000000	96.483304  
2008.000000	96.449952  
2007.000000	96.472163  
2006.000000	96.548729  
2005.000000	96.642667  
2004.000000	96.696718  
2003.000000	96.668774  
2002.000000	96.561367  
2001.000000	96.432859  
2000.000000	96.369486  
1999.000000	96.421118  
1998.000000	96.556779  
1997.000000	96.693461  
1996.000000	96.776016  
1995.000000	96.813000  
1994.000000	96.833334  
1993.000000	96.838496  
1992.000000	96.812934  
1991.000000	96.763045  
1990.000000	96.724462  
1989.000000	96.733627  
1988.000000	96.793310  
1987.000000	96.854578  
1986.000000	96.842368  
1985.000000	96.728067  
1984.000000	96.577511  
1983.000000	96.497337  
1982.000000	96.530397  
1981.000000	96.628593  
1980.000000	96.728171  
1979.000000	96.813701  
1978.000000	96.891289  
1977.000000	96.945861  
1976.000000	96.963566  
1975.000000	96.957122  
1974.000000	96.932478  
1973.000000	96.865596  
1972.000000	96.742129  
1971.000000	96.589672  
1970.000000	96.448519  
1969.000000	96.338887  
1968.000000	96.272746  
1967.000000	96.263077  
1966.000000	96.295266  
1965.000000	96.322394  
1964.000000	96.320193  
1963.000000	96.320494  
1962.000000	96.366769  
1961.000000	96.457862  
1960.000000	96.557463  
1959.000000	96.639566  
1958.000000	96.699645  
1957.000000	96.741798  
1956.000000	96.777533  
1955.000000	96.819735  
1954.000000	96.860872  
1953.000000	96.874416  
1952.000000	96.851845  
1951.000000	96.816773  
1950.000000	96.790395  
1949.000000	96.766072  
1948.000000	96.732301  
1947.000000	96.700729  
1946.000000	96.693300  
1945.000000	96.717716  
1944.000000	96.768961  
1943.000000	96.833808  
1942.000000	96.879862  
1941.000000	96.868926  
1940.000000	96.800913  
1939.000000	96.719860  
1938.000000	96.667200  
1937.000000	96.648038  
1936.000000	96.648991  
1935.000000	96.665212  
1934.000000	96.690843  
1933.000000	96.706370  
1932.000000	96.701244  
1931.000000	96.690854  
1930.000000	96.691436  
1929.000000	96.695327  
1928.000000	96.688625  
1927.000000	96.677230  
1926.000000	96.671189  
1925.000000	96.662071  
1924.000000	96.640369  
1923.000000	96.623588  
1922.000000	96.639926  
1921.000000	96.687365  
1920.000000	96.735416  
1919.000000	96.758697  
1918.000000	96.754941  
1917.000000	96.739819  
1916.000000	96.735564  
1915.000000	96.758484  
1914.000000	96.802154  
1913.000000	96.838116  
1912.000000	96.845260  
1911.000000	96.828161  
1910.000000	96.796962  
1909.000000	96.748639  
1908.000000	96.687552  
1907.000000	96.646450  
1906.000000	96.656474  
1905.000000	96.706150  
1904.000000	96.751378  
1903.000000	96.762368  
1902.000000	96.744793  
1901.000000	96.719276  
1900.000000	96.701917  
1899.000000	96.702300  
1898.000000	96.718229  
1897.000000	96.733838  
1896.000000	96.738899  
1895.000000	96.745056  
1894.000000	96.767468  
1893.000000	96.798016  
1892.000000	96.817216  
1891.000000	96.823426  
1890.000000	96.831633  
1889.000000	96.846399  
1888.000000	96.856116  
1887.000000	96.855643  
1886.000000	96.849189  
1885.000000	96.834162  
1884.000000	96.804743  
1883.000000	96.769088  
1882.000000	96.744346  
1881.000000	96.734351  
1880.000000	96.728997  
1879.000000	96.725761  
1878.000000	96.732385  
1877.000000	96.749287  
1876.000000	96.766854  
1875.000000	96.778150  
1874.000000	96.782447  
1873.000000	96.780842  
1872.000000	96.779412  
1871.000000	96.791215  
1870.000000	96.819972  
1869.000000	96.842431  
1868.000000	96.832412  
1867.000000	96.803549  
1866.000000	96.792346  
1865.000000	96.807203  
1864.000000	96.820727  
1863.000000	96.806756  
1862.000000	96.769354  
1861.000000	96.732787  
1860.000000	96.715039  
1859.000000	96.717790  
1858.000000	96.731248  
1857.000000	96.740063  
1856.000000	96.733120  
1855.000000	96.714068  
1854.000000	96.698142  
1853.000000	96.698121  
1852.000000	96.715653  
1851.000000	96.746187  
1850.000000	96.779831  
1849.000000	96.801976  
1848.000000	96.807562  
1847.000000	96.805748  
1846.000000	96.803729  
1845.000000	96.796746  
1844.000000	96.782173  
1843.000000	96.769586  
1842.000000	96.767617  
1841.000000	96.768662  
1840.000000	96.757896  
1839.000000	96.735120  
1838.000000	96.710091  
1837.000000	96.686259  
1836.000000	96.664460  
1835.000000	96.653413  
1834.000000	96.660424  
1833.000000	96.677108  
1832.000000	96.689892  
1831.000000	96.698584  
1830.000000	96.706081  
1829.000000	96.699794  
1828.000000	96.670686  
1827.000000	96.633687  
1826.000000	96.609073  
1825.000000	96.600363  
1824.000000	96.599196  
1823.000000	96.604735  
1822.000000	96.619861  
1821.000000	96.632843  
1820.000000	96.626741  
1819.000000	96.602057  
1818.000000	96.572666  
1817.000000	96.547289  
1816.000000	96.526074  
1815.000000	96.508789  
1814.000000	96.494953  
1813.000000	96.479218  
1812.000000	96.463050  
1811.000000	96.459465  
1810.000000	96.470651  
1809.000000	96.475191  
1808.000000	96.452275  
1807.000000	96.408192  
1806.000000	96.362956  
1805.000000	96.322790  
1804.000000	96.284004  
1803.000000	96.254135  
1802.000000	96.246405  
1801.000000	96.250175  
1800.000000	96.237041  
1799.000000	96.199355  
1798.000000	96.153471  
1797.000000	96.109192  
1796.000000	96.060548  
1795.000000	96.005388  
1794.000000	95.951785  
1793.000000	95.902267  
1792.000000	95.850150  
1791.000000	95.796311  
1790.000000	95.751299  
1789.000000	95.718059  
1788.000000	95.690391  
1787.000000	95.663661  
1786.000000	95.630033  
1785.000000	95.571337  
1784.000000	95.478440  
1783.000000	95.372710  
1782.000000	95.284042  
1781.000000	95.211910  
1780.000000	95.136924  
1779.000000	95.054699  
1778.000000	94.971971  
1777.000000	94.883862  
1776.000000	94.776940  
1775.000000	94.650198  
1774.000000	94.505823  
1773.000000	94.333046  
1772.000000	94.137345  
1771.000000	93.955874  
1770.000000	93.794960  
1769.000000	93.604429  
1768.000000	93.346271  
1767.000000	93.047503  
1766.000000	92.749955  
1765.000000	92.440461  
1764.000000	92.067187  
1763.000000	91.603859  
1762.000000	91.074673  
1761.000000	90.509313  
1760.000000	89.904556  
1759.000000	89.218378  
1758.000000	88.363948  
1757.000000	87.264381  
1756.000000	85.962149  
1755.000000	84.565288  
1754.000000	83.031537  
1753.000000	81.122570  
1752.000000	78.624187  
1751.000000	75.620221  
1750.000000	72.401747  
1749.000000	69.143977  
1748.000000	65.947462  
1747.000000	62.980645  
1746.000000	60.361163  
1745.000000	58.109781  
1744.000000	56.319459  
1743.000000	55.180915  
1742.000000	54.814867  
1741.000000	55.266963  
1740.000000	56.568373  
1739.000000	58.534501  
1738.000000	60.762908  
1737.000000	63.091374  
1736.000000	65.802231  
1735.000000	69.274139  
1734.000000	73.132129  
1733.000000	76.339380  
1732.000000	78.673855  
1731.000000	80.582407  
1730.000000	82.324587  
1729.000000	83.894579  
1728.000000	85.233184  
1727.000000	86.343775  
1726.000000	87.277983  
1725.000000	88.102808  
1724.000000	88.863760  
1723.000000	89.541754  
1722.000000	90.093845  
1721.000000	90.534688  
1720.000000	90.924523  
1719.000000	91.301425  
1718.000000	91.653451  
1717.000000	91.967108  
1716.000000	92.261713  
1715.000000	92.541346  
1714.000000	92.779295  
1713.000000	92.967084  
1712.000000	93.122727  
1711.000000	93.256880  
1710.000000	93.368517  
1709.000000	93.467622  
1708.000000	93.569303  
1707.000000	93.664999  
1706.000000	93.732030  
1705.000000	93.778302  
1704.000000	93.833926  
1703.000000	93.906745  
1702.000000	93.989471  
1701.000000	94.103974  
1700.000000	94.244518  
1699.000000	94.325504  
1698.000000	94.355927  
1697.000000	94.415947  
1696.000000	94.550434  
1695.000000	94.717032  
1694.000000	94.842508  
1693.000000	94.941066  
1692.000000	95.037837  
1691.000000	95.122954  
1690.000000	95.188043  
1689.000000	95.244193  
1688.000000	95.303878  
1687.000000	95.358872  
1686.000000	95.393276  
1685.000000	95.423607  
1684.000000	95.485820  
1683.000000	95.558087  
1682.000000	95.607876  
1681.000000	95.644061  
1680.000000	95.681811  
1679.000000	95.724177  
1678.000000	95.766431  
1677.000000	95.810673  
1676.000000	95.864945  
1675.000000	95.914880  
1674.000000	95.924918  
1673.000000	95.901231  
1672.000000	95.881151  
1671.000000	95.880336  
1670.000000	95.896162  
1669.000000	95.918087  
1668.000000	95.931581  
1667.000000	95.930962  
1666.000000	95.916406  
1665.000000	95.888083  
1664.000000	95.849714  
1663.000000	95.806414  
1662.000000	95.760813  
1661.000000	95.713626  
1660.000000	95.668276  
1659.000000	95.629321  
1658.000000	95.600818  
1657.000000	95.589565  
1656.000000	95.592842  
1655.000000	95.591365  
1654.000000	95.577346  
1653.000000	95.577945  
1652.000000	95.564763  
1651.000000	95.543024  
1650.000000	95.562368  
1649.000000	95.597137  
1648.000000	95.634180  
1647.000000	95.706297  
1646.000000	95.803839  
1645.000000	95.875665  
1644.000000	95.922515  
1643.000000	95.970566  
1642.000000	96.026539  
1641.000000	96.087898  
1640.000000	96.151016  
1639.000000	96.204201  
1638.000000	96.230717  
1637.000000	96.239487  
1636.000000	96.271538  
1635.000000	96.331081  
1634.000000	96.362572  
1633.000000	96.363904  
1632.000000	96.370892  
1631.000000	96.390522  
1630.000000	96.409266  
1629.000000	96.415846  
1628.000000	96.414965  
1627.000000	96.418550  
1626.000000	96.429700  
1625.000000	96.444159  
1624.000000	96.462483  
1623.000000	96.485532  
1622.000000	96.503251  
1621.000000	96.507109  
1620.000000	96.499997  
1619.000000	96.482182  
1618.000000	96.455973  
1617.000000	96.438573  
1616.000000	96.440184  
1615.000000	96.451326  
1614.000000	96.463935  
1613.000000	96.473243  
1612.000000	96.481199  
1611.000000	96.493509  
1610.000000	96.506109  
1609.000000	96.507881  
1608.000000	96.498208  
1607.000000	96.488011  
1606.000000	96.486363  
1605.000000	96.494243  
1604.000000	96.509199  
1603.000000	96.524538  
1602.000000	96.528899  
1601.000000	96.521583  
1600.000000	96.517366  
1599.000000	96.527377  
1598.000000	96.543861  
1597.000000	96.552445  
1596.000000	96.552394  
1595.000000	96.554832  
1594.000000	96.567524  
1593.000000	96.589483  
1592.000000	96.616511  
1591.000000	96.644208  
1590.000000	96.669228  
1589.000000	96.693172  
1588.000000	96.721568  
1587.000000	96.755948  
1586.000000	96.792533  
1585.000000	96.831531  
1584.000000	96.880431  
1583.000000	96.946183  
1582.000000	97.023601  
1581.000000	97.100798  
1580.000000	97.172258  
1579.000000	97.232800  
1578.000000	97.266468  
1577.000000	97.261879  
1576.000000	97.233366  
1575.000000	97.204322  
1574.000000	97.187902  
1573.000000	97.181105  
1572.000000	97.164485  
1571.000000	97.122449  
1570.000000	97.055487  
1569.000000	96.981014  
1568.000000	96.916859  
1567.000000	96.868544  
1566.000000	96.826446  
1565.000000	96.785487  
1564.000000	96.759389  
1563.000000	96.762028  
1562.000000	96.783962  
1561.000000	96.793525  
1560.000000	96.777364  
1559.000000	96.769893  
1558.000000	96.796610  
1557.000000	96.811259  
1556.000000	96.823305  
1555.000000	96.845669  
1554.000000	96.860478  
1553.000000	96.859726  
1552.000000	96.865519  
1551.000000	96.897989  
1550.000000	96.949589  
1549.000000	97.006346  
1548.000000	97.067444  
1547.000000	97.141582  
1546.000000	97.227798  
1545.000000	97.318512  
1544.000000	97.416493  
1543.000000	97.517182  
1542.000000	97.578647  
1541.000000	97.551660  
1540.000000	97.451149  
1539.000000	97.337337  
1538.000000	97.228959  
1537.000000	97.139560  
1536.000000	97.070047  
1535.000000	96.994332  
1534.000000	96.901527  
1533.000000	96.805220  
1532.000000	96.721823  
1531.000000	96.655076  
1530.000000	96.601485  
1529.000000	96.562002  
1528.000000	96.536864  
1527.000000	96.516803  
1526.000000	96.486868  
1525.000000	96.443527  
1524.000000	96.398265  
1523.000000	96.355077  
1522.000000	96.309568  
1521.000000	96.272869  
1520.000000	96.252953  
1519.000000	96.242640  
1518.000000	96.227585  
1517.000000	96.206935  
1516.000000	96.201991  
1515.000000	96.208399  
1514.000000	96.200371  
1513.000000	96.171072  
1512.000000	96.141011  
1511.000000	96.126426  
1510.000000	96.116429  
1509.000000	96.088188  
1508.000000	96.044433  
1507.000000	96.020238  
1506.000000	96.013341  
1505.000000	95.966671  
1504.000000	95.909326  
1503.000000	95.884257  
1502.000000	95.865608  
1501.000000	95.829713  
1500.000000	95.791075  
1499.000000	95.767651  
1498.000000	95.744711  
1497.000000	95.708568  
1496.000000	95.681339  
1495.000000	95.671362  
1494.000000	95.654601  
1493.000000	95.620375  
1492.000000	95.587429  
1491.000000	95.571628  
1490.000000	95.552695  
1489.000000	95.510738  
1488.000000	95.461794  
1487.000000	95.413363  
1486.000000	95.347561  
1485.000000	95.259577  
1484.000000	95.167241  
1483.000000	95.080320  
1482.000000	94.978870  
1481.000000	94.850333  
1480.000000	94.715885  
1479.000000	94.585625  
1478.000000	94.425196  
1477.000000	94.197083  
1476.000000	93.901139  
1475.000000	93.505232  
1474.000000	92.863051  
1473.000000	91.820365  
1472.000000	90.467939  
1471.000000	89.061866  
1470.000000	87.731685  
1469.000000	86.521341  
1468.000000	85.505645  
1467.000000	84.750121  
1466.000000	84.246610  
1465.000000	83.940260  
1464.000000	83.778450  
1463.000000	83.701462  
1462.000000	83.652327  
1461.000000	83.616032  
1460.000000	83.608152  
1459.000000	83.630394  
1458.000000	83.669741  
1457.000000	83.775726  
1456.000000	84.018457  
1455.000000	84.362923  
1454.000000	84.748263  
1453.000000	85.135558  
1452.000000	85.493364  
1451.000000	85.782141  
1450.000000	85.965828  
1449.000000	86.048704  
1448.000000	86.067412  
1447.000000	86.035134  
1446.000000	85.932444  
1445.000000	85.754438  
1444.000000	85.518228  
1443.000000	85.212872  
1442.000000	84.791127  
1441.000000	84.241809  
1440.000000	83.609416  
1439.000000	82.909042  
1438.000000	82.109913  
1437.000000	81.330821  
1436.000000	80.933703  
1435.000000	81.132866  
1434.000000	81.831258  
1433.000000	82.893941  
1432.000000	84.225477  
1431.000000	85.680566  
1430.000000	87.067231  
1429.000000	88.242911  
1428.000000	89.152724  
1427.000000	89.816113  
1426.000000	90.300405  
1425.000000	90.662788  
1424.000000	90.922670  
1423.000000	91.093696  
1422.000000	91.212572  
1421.000000	91.322394  
1420.000000	91.453287  
1419.000000	91.623168  
1418.000000	91.836832  
1417.000000	92.091945  
1416.000000	92.379728  
1415.000000	92.681038  
1414.000000	92.978502  
1413.000000	93.257696  
1412.000000	93.498150  
1411.000000	93.678186  
1410.000000	93.794022  
1409.000000	93.860314  
1408.000000	93.889464  
1407.000000	93.884671  
1406.000000	93.852863  
1405.000000	93.802550  
1404.000000	93.737193  
1403.000000	93.665945  
1402.000000	93.611519  
1401.000000	93.594240  
1400.000000	93.611751  
1399.000000	93.643703  
1398.000000	93.675195  
1397.000000	93.710213  
1396.000000	93.759656  
1395.000000	93.830037  
1394.000000	93.917491  
1393.000000	94.002632  
1392.000000	94.066369  
1391.000000	94.099918  
1390.000000	94.100378  
1389.000000	94.063130  
1388.000000	93.976197  
1387.000000	93.829695  
1386.000000	93.625768  
1385.000000	93.362374  
1384.000000	93.021013  
1383.000000	92.588274  
1382.000000	92.081378  
1381.000000	91.545081  
1380.000000	91.036709  
1379.000000	90.624318  
1378.000000	90.364110  
1377.000000	90.256822  
1376.000000	90.246573  
1375.000000	90.265110  
1374.000000	90.266944  
1373.000000	90.228878  
1372.000000	90.140064  
1371.000000	90.003025  
1370.000000	89.831482  
1369.000000	89.639743  
1368.000000	89.441776  
1367.000000	89.255523  
1366.000000	89.096659  
1365.000000	88.968477  
1364.000000	88.865464  
1363.000000	88.791769  
1362.000000	88.763964  
1361.000000	88.786246  
1360.000000	88.841680  
1359.000000	88.911754  
1358.000000	88.989673  
1357.000000	89.077212  
1356.000000	89.177855  
1355.000000	89.293213  
1354.000000	89.421181  
1353.000000	89.555528  
1352.000000	89.689895  
1351.000000	89.824388  
1350.000000	89.968694  
1349.000000	90.130788  
1348.000000	90.306523  
1347.000000	90.483160  
1346.000000	90.650442  
1345.000000	90.805957  
1344.000000	90.951457  
1343.000000	91.089262  
1342.000000	91.221856  
1341.000000	91.351053  
1340.000000	91.475372  
1339.000000	91.588676  
1338.000000	91.682213  
1337.000000	91.750336  
1336.000000	91.794453  
1335.000000	91.821232  
1334.000000	91.837010  
1333.000000	91.841588  
1332.000000	91.826545  
1331.000000	91.781389  
1330.000000	91.701865  
1329.000000	91.591514  
1328.000000	91.457991  
1327.000000	91.310288  
1326.000000	91.157762  
1325.000000	91.008396  
1324.000000	90.869436  
1323.000000	90.748799  
1322.000000	90.652979  
1321.000000	90.584365  
1320.000000	90.542103  
1319.000000	90.524130  
1318.000000	90.526232  
1317.000000	90.541495  
1316.000000	90.563697  
1315.000000	90.590239  
1314.000000	90.619675  
1313.000000	90.647320  
1312.000000	90.665475  
1311.000000	90.668574  
1310.000000	90.657253  
1309.000000	90.637001  
1308.000000	90.613611  
1307.000000	90.589229  
1306.000000	90.562095  
1305.000000	90.530068  
1304.000000	90.495912  
1303.000000	90.468124  
1302.000000	90.455084  
1301.000000	90.458483  
1300.000000	90.472424  
1299.000000	90.487853  
1298.000000	90.497653  
1297.000000	90.499862  
1296.000000	90.497428  
1295.000000	90.494005  
1294.000000	90.488475  
1293.000000	90.474673  
1292.000000	90.447841  
1291.000000	90.409333  
1290.000000	90.361493  
1289.000000	90.297787  
1288.000000	90.202061  
1287.000000	90.061115  
1286.000000	89.877978  
1285.000000	89.671929  
1284.000000	89.466994  
1283.000000	89.280284  
1282.000000	89.117566  
1281.000000	88.976499  
1280.000000	88.852174  
1279.000000	88.739550  
1278.000000	88.633760  
1277.000000	88.532496  
1276.000000	88.437825  
1275.000000	88.352148  
1274.000000	88.271801  
1273.000000	88.187330  
1272.000000	88.090351  
1271.000000	87.977771  
1270.000000	87.849957  
1269.000000	87.708176  
1268.000000	87.554032  
1267.000000	87.388151  
1266.000000	87.209539  
1265.000000	87.020013  
1264.000000	86.827756  
1263.000000	86.640129  
1262.000000	86.452940  
1261.000000	86.254034  
1260.000000	86.039056  
1259.000000	85.816429  
1258.000000	85.593758  
1257.000000	85.366895  
1256.000000	85.126140  
1255.000000	84.866603  
1254.000000	84.588526  
1253.000000	84.293594  
1252.000000	83.987275  
1251.000000	83.683085  
1250.000000	83.401284  
1249.000000	83.163893  
1248.000000	82.988467  
1247.000000	82.879611  
1246.000000	82.826391  
1245.000000	82.814337  
1244.000000	82.838271  
1243.000000	82.897549  
1242.000000	82.984725  
1241.000000	83.089777  
1240.000000	83.212039  
1239.000000	83.356433  
1238.000000	83.519658  
1237.000000	83.690793  
1236.000000	83.864099  
1235.000000	84.039837  
1234.000000	84.211800  
1233.000000	84.364457  
1232.000000	84.485407  
1231.000000	84.573915  
1230.000000	84.635640  
1229.000000	84.675190  
1228.000000	84.695872  
1227.000000	84.701353  
1226.000000	84.694066  
1225.000000	84.673400  
1224.000000	84.635118  
1223.000000	84.570734  
1222.000000	84.470714  
1221.000000	84.333508  
1220.000000	84.170167  
1219.000000	83.995353  
1218.000000	83.814506  
1217.000000	83.623836  
1216.000000	83.419578  
1215.000000	83.199891  
1214.000000	82.960663  
1213.000000	82.699167  
1212.000000	82.420901  
1211.000000	82.132866  
1210.000000	81.829809  
1209.000000	81.496621  
1208.000000	81.124357  
1207.000000	80.714641  
1206.000000	80.270260  
1205.000000	79.794495  
1204.000000	79.300172  
1203.000000	78.804835  
1202.000000	78.313791  
1201.000000	77.822438  
1200.000000	77.340242  
1199.000000	76.899787  
1198.000000	76.538733  
1197.000000	76.286238  
1196.000000	76.168115  
1195.000000	76.206000  
1194.000000	76.403515  
1193.000000	76.744184  
1192.000000	77.203114  
1191.000000	77.747712  
1190.000000	78.329273  
1189.000000	78.888716  
1188.000000	79.372321  
1187.000000	79.736815  
1186.000000	79.947923  
1185.000000	79.986566  
1184.000000	79.854840  
1183.000000	79.568125  
1182.000000	79.142740  
1181.000000	78.596922  
1180.000000	77.958644  
1179.000000	77.259696  
1178.000000	76.521805  
1177.000000	75.761296  
1176.000000	75.008005  
1175.000000	74.304054  
1174.000000	73.681275  
1173.000000	73.155963  
1172.000000	72.747258  
1171.000000	72.479789  
1170.000000	72.363370  
1169.000000	72.389705  
1168.000000	72.553320  
1167.000000	72.856477  
1166.000000	73.290052  
1165.000000	73.828173  
1164.000000	74.445135  
1163.000000	75.122474  
1162.000000	75.839570  
1161.000000	76.572945  
1160.000000	77.306396  
1159.000000	78.031605  
1158.000000	78.741265  
1157.000000	79.431298  
1156.000000	80.105221  
1155.000000	80.765286  
1154.000000	81.402569  
1153.000000	82.004977  
1152.000000	82.570534  
1151.000000	83.102914  
1150.000000	83.597782  
1149.000000	84.044449  
1148.000000	84.441076  
1147.000000	84.800652  
1146.000000	85.141131  
1145.000000	85.474999  
1144.000000	85.808280  
1143.000000	86.142261  
1142.000000	86.472406  
1141.000000	86.789833  
1140.000000	87.088970  
1139.000000	87.373974  
1138.000000	87.654557  
1137.000000	87.934188  
1136.000000	88.206298  
1135.000000	88.465579  
1134.000000	88.717425  
1133.000000	88.965236  
1132.000000	89.188269  
1131.000000	89.345942  
1130.000000	89.412577  
1129.000000	89.399440  
1128.000000	89.335589  
1127.000000	89.237466  
1126.000000	89.106732  
1125.000000	88.948551  
1124.000000	88.778700  
1123.000000	88.617037  
1122.000000	88.485547  
1121.000000	88.408436  
1120.000000	88.398744  
1119.000000	88.443412  
1118.000000	88.515798  
1117.000000	88.606499  
1116.000000	88.727945  
1115.000000	88.884733  
1114.000000	89.055388  
1113.000000	89.211581  
1112.000000	89.341667  
1111.000000	89.446727  
1110.000000	89.526905  
1109.000000	89.583121  
1108.000000	89.622688  
1107.000000	89.651353  
1106.000000	89.665782  
1105.000000	89.662845  
1104.000000	89.649738  
1103.000000	89.636061  
1102.000000	89.622297  
1101.000000	89.605374  
1100.000000	89.589554  
1099.000000	89.580948  
1098.000000	89.576688  
1097.000000	89.571145  
1096.000000	89.571329  
1095.000000	89.595579  
1094.000000	89.656109  
1093.000000	89.749461  
1092.000000	89.862368  
1091.000000	89.980279  
1090.000000	90.093613  
1089.000000	90.204308  
1088.000000	90.325413  
1087.000000	90.467961  
1086.000000	90.628919  
1085.000000	90.796327  
1084.000000	90.963434  
1083.000000	91.132535  
1082.000000	91.307519  
1081.000000	91.487937  
1080.000000	91.669083  
1079.000000	91.845012  
1078.000000	92.013325  
1077.000000	92.176809  
1076.000000	92.334188  
1075.000000	92.468895  
1074.000000	92.557854  
1073.000000	92.597629  
1072.000000	92.613511  
1071.000000	92.634881  
1070.000000	92.667115  
1069.000000	92.695971  
1068.000000	92.713451  
1067.000000	92.725571  
1066.000000	92.735179  
1065.000000	92.731942  
1064.000000	92.707359  
1063.000000	92.672413  
1062.000000	92.651273  
1061.000000	92.657860  
1060.000000	92.683255  
1059.000000	92.706601  
1058.000000	92.716975  
1057.000000	92.724254  
1056.000000	92.748336  
1055.000000	92.797767  
1054.000000	92.859696  
1053.000000	92.911094  
1052.000000	92.937252  
1051.000000	92.937434  
1050.000000	92.918063  
1049.000000	92.888969  
1048.000000	92.864058  
1047.000000	92.853586  
1046.000000	92.852631  
1045.000000	92.844376  
1044.000000	92.816910  
1043.000000	92.772842  
1042.000000	92.722343  
1041.000000	92.672331  
1040.000000	92.624697  
1039.000000	92.578693  
1038.000000	92.529074  
1037.000000	92.465197  
1036.000000	92.377917  
1035.000000	92.267514  
1034.000000	92.142339  
1033.000000	92.011281  
1032.000000	91.880475  
1031.000000	91.754194  
1030.000000	91.633322  
1029.000000	91.513258  
1028.000000	91.387360  
1027.000000	91.252890  
1026.000000	91.111376  
1025.000000	90.963563  
1024.000000	90.806600  
1023.000000	90.637108  
1022.000000	90.457938  
1021.000000	90.284305  
1020.000000	90.141920  
1019.000000	90.051849  
1018.000000	90.013071  
1017.000000	90.004640  
1016.000000	90.008896  
1015.000000	90.028430  
1014.000000	90.076816  
1013.000000	90.158126  
1012.000000	90.262414  
1011.000000	90.378357  
1010.000000	90.502077  
1009.000000	90.632709  
1008.000000	90.766890  
1007.000000	90.902439  
1006.000000	91.042606  
1005.000000	91.189485  
1004.000000	91.334366  
1003.000000	91.461797  
1002.000000	91.565237  
1001.000000	91.652531  
1000.000000	91.732119  
999.000000	 91.799358  
998.000000	 91.842775  
997.000000	 91.860979  
996.000000	 91.865883  
995.000000	 91.868945  
994.000000	 91.871084  
993.000000	 91.869620  
992.000000	 91.870255  
991.000000	 91.885972  
990.000000	 91.924207  
989.000000	 91.979606  
988.000000	 92.041644  
987.000000	 92.107604  
986.000000	 92.185454  
985.000000	 92.283210  
984.000000	 92.397172  
983.000000	 92.513205  
982.000000	 92.619879  
981.000000	 92.716830  
980.000000	 92.808363  
979.000000	 92.893998  
978.000000	 92.971397  
977.000000	 93.045963  
976.000000	 93.129096  
975.000000	 93.224720  
974.000000	 93.323885  
973.000000	 93.416580  
972.000000	 93.503706  
971.000000	 93.591817  
970.000000	 93.679386  
969.000000	 93.755696  
968.000000	 93.814626  
967.000000	 93.864508  
966.000000	 93.921156  
965.000000	 93.993218  
964.000000	 94.076738  
963.000000	 94.161904  
962.000000	 94.241312  
961.000000	 94.311912  
960.000000	 94.373375  
959.000000	 94.427682  
958.000000	 94.478532  
957.000000	 94.527800  
956.000000	 94.572748  
955.000000	 94.608938  
954.000000	 94.635465  
953.000000	 94.655431  
952.000000	 94.672658  
951.000000	 94.690999  
950.000000	 94.715191  
949.000000	 94.747041  
948.000000	 94.779951  
947.000000	 94.802271  
946.000000	 94.808775  
945.000000	 94.805619  
944.000000	 94.802473  
943.000000	 94.803978  
942.000000	 94.810579  
941.000000	 94.821592  
940.000000	 94.832456  
939.000000	 94.833876  
938.000000	 94.821824  
937.000000	 94.807649  
936.000000	 94.810758  
935.000000	 94.838537  
934.000000	 94.877234  
933.000000	 94.904243  
932.000000	 94.905929  
931.000000	 94.882973  
930.000000	 94.844347  
929.000000	 94.801158  
928.000000	 94.763891  
927.000000	 94.738398  
926.000000	 94.720100  
925.000000	 94.693579  
924.000000	 94.642289  
923.000000	 94.562275  
922.000000	 94.466953  
921.000000	 94.376929  
920.000000	 94.304315  
919.000000	 94.246743  
918.000000	 94.195083  
917.000000	 94.144694  
916.000000	 94.098770  
915.000000	 94.063457  
914.000000	 94.042053  
913.000000	 94.032539  
912.000000	 94.029061  
911.000000	 94.027806  
910.000000	 94.034070  
909.000000	 94.060847  
908.000000	 94.114934  
907.000000	 94.184627  
906.000000	 94.246925  
905.000000	 94.289269  
904.000000	 94.319944  
903.000000	 94.354471  
902.000000	 94.394443  
901.000000	 94.421755  
900.000000	 94.412480  
899.000000	 94.357422  
898.000000	 94.273324  
897.000000	 94.193769  
896.000000	 94.142691  
895.000000	 94.112173  
894.000000	 94.068564  
893.000000	 93.983923  
892.000000	 93.859589  
891.000000	 93.717720  
890.000000	 93.575643  
889.000000	 93.434855  
888.000000	 93.291229  
887.000000	 93.145408  
886.000000	 93.001668  
885.000000	 92.866543  
884.000000	 92.754252  
883.000000	 92.684819  
882.000000	 92.665554  
881.000000	 92.676161  
880.000000	 92.682541  
879.000000	 92.669606  
878.000000	 92.655381  
877.000000	 92.667514  
876.000000	 92.709157  
875.000000	 92.754996  
874.000000	 92.781041  
873.000000	 92.790230  
872.000000	 92.802422  
871.000000	 92.824057  
870.000000	 92.837584  
869.000000	 92.822668  
868.000000	 92.781042  
867.000000	 92.736441  
866.000000	 92.712896  
865.000000	 92.715831  
864.000000	 92.732233  
863.000000	 92.745728  
862.000000	 92.750817  
861.000000	 92.752561  
860.000000	 92.752741  
859.000000	 92.740834  
858.000000	 92.705116  
857.000000	 92.651648  
856.000000	 92.603310  
855.000000	 92.576124  
854.000000	 92.563711  
853.000000	 92.550711  
852.000000	 92.533975  
851.000000	 92.520876  
850.000000	 92.511453  
849.000000	 92.495194  
848.000000	 92.467218  
847.000000	 92.437399  
846.000000	 92.418514  
845.000000	 92.411739  
844.000000	 92.409237  
843.000000	 92.408138  
842.000000	 92.418201  
841.000000	 92.456295  
840.000000	 92.533653  
839.000000	 92.645948  
838.000000	 92.775149  
837.000000	 92.902427  
836.000000	 93.017421  
835.000000	 93.113057  
834.000000	 93.177617  
833.000000	 93.203328  
832.000000	 93.206560  
831.000000	 93.231014  
830.000000	 93.318652  
829.000000	 93.472269  
828.000000	 93.649805  
827.000000	 93.799352  
826.000000	 93.900593  
825.000000	 93.970528  
824.000000	 94.032443  
823.000000	 94.090839  
822.000000	 94.139743  
821.000000	 94.181452  
820.000000	 94.224982  
819.000000	 94.272546  
818.000000	 94.317186  
817.000000	 94.351329  
816.000000	 94.371221  
815.000000	 94.374974  
814.000000	 94.364775  
813.000000	 94.352772  
812.000000	 94.356696  
811.000000	 94.384303  
810.000000	 94.425955  
809.000000	 94.466001  
808.000000	 94.496874  
807.000000	 94.518230  
806.000000	 94.528963  
805.000000	 94.528393  
804.000000	 94.522868  
803.000000	 94.522802  
802.000000	 94.531530  
801.000000	 94.542389  
800.000000	 94.548831  
799.000000	 94.554250  
798.000000	 94.568925  
797.000000	 94.596349  
796.000000	 94.622879  
795.000000	 94.623387  
794.000000	 94.581488  
793.000000	 94.504749  
792.000000	 94.416798  
791.000000	 94.336522  
790.000000	 94.270834  
789.000000	 94.224563  
788.000000	 94.204131  
787.000000	 94.205552  
786.000000	 94.208745  
785.000000	 94.192961  
784.000000	 94.152884  
783.000000	 94.095207  
782.000000	 94.029225  
781.000000	 93.968491  
780.000000	 93.930060  
779.000000	 93.917455  
778.000000	 93.909437  
777.000000	 93.877887  
776.000000	 93.812799  
775.000000	 93.720990  
774.000000	 93.611269  
773.000000	 93.497039  
772.000000	 93.403905  
771.000000	 93.350976  
770.000000	 93.324550  
769.000000	 93.290111  
768.000000	 93.231754  
767.000000	 93.161433  
766.000000	 93.089390  
765.000000	 93.009067  
764.000000	 92.917815  
763.000000	 92.830759  
762.000000	 92.762790  
761.000000	 92.711054  
760.000000	 92.662640  
759.000000	 92.606461  
758.000000	 92.533959  
757.000000	 92.442402  
756.000000	 92.332876  
755.000000	 92.178223  
754.000000	 91.900063  
753.000000	 91.434634  
752.000000	 90.853838  
751.000000	 90.376332  
750.000000	 90.201777  
749.000000	 90.332325  
748.000000	 90.575165  
747.000000	 90.712193  
746.000000	 90.649264  
745.000000	 90.419777  
744.000000	 90.103361  
743.000000	 89.768643  
742.000000	 89.453391  
741.000000	 89.151285  
740.000000	 88.817111  
739.000000	 88.408735  
738.000000	 87.929986  
737.000000	 87.425756  
736.000000	 86.938664  
735.000000	 86.478792  
734.000000	 86.032514  
733.000000	 85.588700  
732.000000	 85.148175  
731.000000	 84.709451  
730.000000	 84.254836  
729.000000	 83.759706  
728.000000	 83.217366  
727.000000	 82.651164  
726.000000	 82.103473  
725.000000	 81.620595  
724.000000	 81.249642  
723.000000	 81.041078  
722.000000	 81.041014  
721.000000	 81.262211  
720.000000	 81.649193  
719.000000	 82.090526  
718.000000	 82.491968  
717.000000	 82.828489  
716.000000	 83.124005  
715.000000	 83.405579  
714.000000	 83.682619  
713.000000	 83.952403  
712.000000	 84.208510  
711.000000	 84.442578  
710.000000	 84.648383  
709.000000	 84.830080  
708.000000	 85.003785  
707.000000	 85.188043  
706.000000	 85.390871  
705.000000	 85.603393  
704.000000	 85.803563  
703.000000	 85.968245  
702.000000	 86.088897  
701.000000	 86.180406  
700.000000	 86.272991  
699.000000	 86.391073  
698.000000	 86.535818  
697.000000	 86.687490  
696.000000	 86.826806  
695.000000	 86.954573  
694.000000	 87.090576  
693.000000	 87.252847  
692.000000	 87.438202  
691.000000	 87.624015  
690.000000	 87.786798  
689.000000	 87.920880  
688.000000	 88.046259  
687.000000	 88.200163  
686.000000	 88.413436  
685.000000	 88.683902  
684.000000	 88.971666  
683.000000	 89.227577  
682.000000	 89.426404  
681.000000	 89.576743  
680.000000	 89.710675  
679.000000	 89.867110  
678.000000	 90.072123  
677.000000	 90.317343  
676.000000	 90.554189  
675.000000	 90.747944  
674.000000	 90.899142  
673.000000	 91.018898  
672.000000	 91.133112  
671.000000	 91.312375  
670.000000	 91.652858  
669.000000	 92.207422  
668.000000	 92.827637  
667.000000	 93.070238  
666.000000	 92.876106  
665.000000	 92.639155  
664.000000	 92.568180  
663.000000	 92.625535  
662.000000	 92.713163  
661.000000	 92.798653  
660.000000	 92.909915  
659.000000	 93.058315  
658.000000	 93.217689  
657.000000	 93.360417  
656.000000	 93.464072  
655.000000	 93.515094  
654.000000	 93.520488  
653.000000	 93.519156  
652.000000	 93.562885  
651.000000	 93.664403  
650.000000	 93.768668  
649.000000	 93.802244  
648.000000	 93.757089  
647.000000	 93.702265  
646.000000	 93.702722  
645.000000	 93.751174  
644.000000	 93.795050  
643.000000	 93.801043  
642.000000	 93.778367  
641.000000	 93.762314  
640.000000	 93.806891  
639.000000	 93.969624  
638.000000	 94.239241  
637.000000	 94.491082  
636.000000	 94.582804  
635.000000	 94.507237  
634.000000	 94.403121  
633.000000	 94.378479  
632.000000	 94.394706  
631.000000	 94.367643  
630.000000	 94.305181  
629.000000	 94.271337  
628.000000	 94.260197  
627.000000	 94.202213  
626.000000	 94.095576  
625.000000	 94.050450  
624.000000	 94.157826  
623.000000	 94.355100  
622.000000	 94.465590  
621.000000	 94.375316  
620.000000	 94.139512  
619.000000	 93.945106  
618.000000	 93.969433  
617.000000	 94.211879  
616.000000	 94.468630  
615.000000	 94.500955  
614.000000	 94.251614  
613.000000	 93.888322  
612.000000	 93.652160  
611.000000	 93.667184  
610.000000	 93.824968  
609.000000	 93.878293  
608.000000	 93.695408  
607.000000	 93.384518  
606.000000	 93.141847  
605.000000	 93.028022  
604.000000	 92.978465  
603.000000	 92.962421  
602.000000	 92.993009  
601.000000	 93.014559  
600.000000	 92.930083  
599.000000	 92.774405  
598.000000	 92.734440  
597.000000	 92.917236  
596.000000	 93.196169  
595.000000	 93.339229  
594.000000	 93.252314  
593.000000	 93.036048  
592.000000	 92.842870  
591.000000	 92.799701  
590.000000	 93.010417  
589.000000	 93.476928  
588.000000	 93.979177  
587.000000	 94.113817  
586.000000	 93.599747  
585.000000	 92.575274  
584.000000	 91.528355  
583.000000	 90.997248  
582.000000	 91.242938  
581.000000	 92.095101  
580.000000	 93.121870  
579.000000	 93.930968  
578.000000	 94.414699  
577.000000	 94.729349  
576.000000	 95.009396  
575.000000	 95.254523  
574.000000	 95.462535  
573.000000	 95.736574  
572.000000	 96.214769  
571.000000	 96.862122  
570.000000	 97.416681  
569.000000	 97.556635  
568.000000	 97.076105  
567.000000	 96.072634  
566.000000	 95.010530  
565.000000	 94.400812  
564.000000	 94.473448  
563.000000	 95.078392  
562.000000	 95.732950  
561.000000	 95.994693  
560.000000	 95.860138  
559.000000	 95.714722  
558.000000	 95.829493  
557.000000	 95.955131  
556.000000	 95.695716  
555.000000	 95.161916  
554.000000	 94.884957  
553.000000	 95.020138  
552.000000	 95.068525  
551.000000	 94.610956  
550.000000	 94.001210  
549.000000	 93.924977  
548.000000	 94.563010  
547.000000	 95.495722  
546.000000	 96.157920  
545.000000	 96.155600  
544.000000	 95.283194  
543.000000	 93.771069  
542.000000	 92.479323  
541.000000	 92.150011  
540.000000	 92.517901  
539.000000	 92.656924  
538.000000	 92.277522  
537.000000	 92.209673  
536.000000	 93.391205  
535.000000	 95.704043  
534.000000	 97.856782  
533.000000	 98.756512  
532.000000	 98.274330  
531.000000	 96.993668  
530.000000	 95.956281  
529.000000	 95.561824  
528.000000	 95.291128  
527.000000	 94.433414  
526.000000	 92.960398  
525.000000	 92.221576  
524.000000	 94.056929  
523.000000	 100.051093 
522.000000	 107.940616 
521.000000	 116.186636 
520.000000	 126.189829 
519.000000	 126.642731 
518.000000	 104.410347 
517.000000	 74.202380  
516.000000	 49.411609  
515.000000	 39.443831  

