PE IR                   SPECTRUM    ASCII       PEDS        1.60        
  -1
121D~1.ASC
22/04/14
10:13:36.00
22/04/14
10:13:36.00
Admin

650.000000
4









SPECTRUM ONE,CPU32 MAIN 00.02.6000 25-JUNE-2003 12:00:00
MIR TGS
MIR
OPTKBR
68128
0.200000

4.000000
STRONG
RATIO
SPECTRUM
MAGNITUDE
UNIVERSAL ATR
DOUBLE

COMBINED


0


#HDR
-1
-1
#GR
CM-1
%T
0.00002384185791015625
0.0
4000.000000
-1.000000
3351
8
100.175322
35.832085
#DATA
4000.000000	99.700774  
3999.000000	99.691257  
3998.000000	99.681615  
3997.000000	99.707746  
3996.000000	99.753449  
3995.000000	99.783220  
3994.000000	99.775513  
3993.000000	99.740003  
3992.000000	99.704051  
3991.000000	99.686415  
3990.000000	99.685166  
3989.000000	99.687367  
3988.000000	99.685348  
3987.000000	99.683118  
3986.000000	99.689384  
3985.000000	99.706573  
3984.000000	99.727905  
3983.000000	99.745204  
3982.000000	99.757461  
3981.000000	99.769338  
3980.000000	99.782761  
3979.000000	99.793733  
3978.000000	99.798127  
3977.000000	99.797071  
3976.000000	99.794689  
3975.000000	99.793512  
3974.000000	99.795355  
3973.000000	99.804722  
3972.000000	99.826212  
3971.000000	99.856747  
3970.000000	99.883464  
3969.000000	99.891730  
3968.000000	99.876843  
3967.000000	99.848164  
3966.000000	99.822524  
3965.000000	99.813305  
3964.000000	99.823763  
3963.000000	99.847678  
3962.000000	99.873353  
3961.000000	99.887907  
3960.000000	99.883051  
3959.000000	99.861940  
3958.000000	99.840763  
3957.000000	99.836588  
3956.000000	99.849766  
3955.000000	99.860872  
3954.000000	99.850008  
3953.000000	99.820028  
3952.000000	99.798156  
3951.000000	99.813153  
3950.000000	99.866774  
3949.000000	99.927963  
3948.000000	99.959094  
3947.000000	99.950742  
3946.000000	99.926567  
3945.000000	99.914927  
3944.000000	99.921280  
3943.000000	99.929652  
3942.000000	99.927507  
3941.000000	99.919237  
3940.000000	99.912727  
3939.000000	99.903657  
3938.000000	99.882621  
3937.000000	99.850832  
3936.000000	99.821505  
3935.000000	99.805807  
3934.000000	99.803225  
3933.000000	99.806313  
3932.000000	99.809740  
3931.000000	99.813832  
3930.000000	99.821760  
3929.000000	99.836492  
3928.000000	99.859608  
3927.000000	99.888632  
3926.000000	99.916383  
3925.000000	99.935755  
3924.000000	99.945806  
3923.000000	99.951642  
3922.000000	99.959563  
3921.000000	99.974714  
3920.000000	99.997735  
3919.000000	100.017551 
3918.000000	100.014449 
3917.000000	99.980922  
3916.000000	99.936902  
3915.000000	99.914342  
3914.000000	99.926456  
3913.000000	99.957069  
3912.000000	99.979111  
3911.000000	99.977979  
3910.000000	99.962970  
3909.000000	99.954587  
3908.000000	99.964154  
3907.000000	99.980789  
3906.000000	99.978630  
3905.000000	99.942258  
3904.000000	99.890246  
3903.000000	99.867019  
3902.000000	99.899972  
3901.000000	99.968149  
3900.000000	100.022348 
3899.000000	100.034065 
3898.000000	100.013461 
3897.000000	99.982587  
3896.000000	99.950026  
3895.000000	99.916757  
3894.000000	99.892689  
3893.000000	99.888452  
3892.000000	99.897815  
3891.000000	99.904373  
3890.000000	99.913822  
3889.000000	99.943215  
3888.000000	99.987977  
3887.000000	100.023609 
3886.000000	100.028359 
3885.000000	100.007085 
3884.000000	99.991604  
3883.000000	99.996179  
3882.000000	100.001313 
3881.000000	99.983557  
3880.000000	99.941398  
3879.000000	99.903079  
3878.000000	99.901162  
3877.000000	99.932760  
3876.000000	99.963831  
3875.000000	99.964426  
3874.000000	99.941649  
3873.000000	99.937340  
3872.000000	99.976496  
3871.000000	100.029367 
3870.000000	100.042129 
3869.000000	100.007997 
3868.000000	99.974825  
3867.000000	99.971989  
3866.000000	99.990432  
3865.000000	100.016568 
3864.000000	100.035855 
3863.000000	100.028826 
3862.000000	99.987720  
3861.000000	99.925627  
3860.000000	99.868245  
3859.000000	99.829227  
3858.000000	99.809242  
3857.000000	99.812316  
3856.000000	99.853293  
3855.000000	99.928753  
3854.000000	99.977995  
3853.000000	99.953168  
3852.000000	99.924819  
3851.000000	99.957308  
3850.000000	100.004987 
3849.000000	100.012213 
3848.000000	99.975286  
3847.000000	99.916401  
3846.000000	99.859272  
3845.000000	99.820852  
3844.000000	99.806431  
3843.000000	99.809918  
3842.000000	99.825217  
3841.000000	99.847609  
3840.000000	99.871198  
3839.000000	99.887402  
3838.000000	99.892576  
3837.000000	99.895845  
3836.000000	99.914149  
3835.000000	99.951701  
3834.000000	99.993381  
3833.000000	100.018845 
3832.000000	100.020400 
3831.000000	100.010628 
3830.000000	100.008664 
3829.000000	100.013156 
3828.000000	99.997625  
3827.000000	99.940004  
3826.000000	99.858993  
3825.000000	99.805934  
3824.000000	99.815147  
3823.000000	99.865376  
3822.000000	99.888545  
3821.000000	99.839167  
3820.000000	99.772298  
3819.000000	99.773319  
3818.000000	99.842521  
3817.000000	99.917513  
3816.000000	99.948236  
3815.000000	99.944887  
3814.000000	99.952653  
3813.000000	99.975610  
3812.000000	99.982248  
3811.000000	99.964641  
3810.000000	99.942700  
3809.000000	99.928425  
3808.000000	99.901671  
3807.000000	99.835431  
3806.000000	99.751536  
3805.000000	99.709195  
3804.000000	99.735845  
3803.000000	99.811859  
3802.000000	99.888931  
3801.000000	99.924733  
3800.000000	99.938162  
3799.000000	99.958592  
3798.000000	99.967494  
3797.000000	99.943180  
3796.000000	99.895216  
3795.000000	99.854065  
3794.000000	99.842449  
3793.000000	99.858782  
3792.000000	99.886011  
3791.000000	99.905441  
3790.000000	99.902758  
3789.000000	99.877580  
3788.000000	99.848291  
3787.000000	99.840773  
3786.000000	99.866626  
3785.000000	99.915256  
3784.000000	99.968449  
3783.000000	100.016102 
3782.000000	100.053857 
3781.000000	100.074762 
3780.000000	100.072494 
3779.000000	100.051224 
3778.000000	100.028463 
3777.000000	100.014382 
3776.000000	99.997077  
3775.000000	99.960429  
3774.000000	99.911179  
3773.000000	99.875502  
3772.000000	99.871158  
3771.000000	99.887855  
3770.000000	99.900508  
3769.000000	99.900244  
3768.000000	99.898355  
3767.000000	99.898935  
3766.000000	99.895983  
3765.000000	99.892805  
3764.000000	99.903047  
3763.000000	99.927691  
3762.000000	99.943419  
3761.000000	99.928023  
3760.000000	99.889358  
3759.000000	99.854425  
3758.000000	99.840842  
3757.000000	99.845069  
3756.000000	99.853475  
3755.000000	99.852222  
3754.000000	99.837587  
3753.000000	99.828688  
3752.000000	99.853210  
3751.000000	99.899143  
3750.000000	99.916966  
3749.000000	99.894948  
3748.000000	99.872151  
3747.000000	99.879100  
3746.000000	99.911076  
3745.000000	99.924928  
3744.000000	99.881797  
3743.000000	99.837814  
3742.000000	99.851551  
3741.000000	99.882122  
3740.000000	99.890058  
3739.000000	99.889051  
3738.000000	99.900617  
3737.000000	99.922050  
3736.000000	99.942201  
3735.000000	99.969102  
3734.000000	100.015552 
3733.000000	100.068923 
3732.000000	100.102994 
3731.000000	100.114059 
3730.000000	100.120557 
3729.000000	100.134951 
3728.000000	100.154893 
3727.000000	100.171284 
3726.000000	100.175322 
3725.000000	100.166168 
3724.000000	100.145449 
3723.000000	100.112763 
3722.000000	100.070856 
3721.000000	100.028955 
3720.000000	99.997663  
3719.000000	99.975035  
3718.000000	99.946521  
3717.000000	99.900197  
3716.000000	99.841364  
3715.000000	99.791618  
3714.000000	99.777365  
3713.000000	99.807121  
3712.000000	99.848263  
3711.000000	99.853127  
3710.000000	99.816298  
3709.000000	99.774959  
3708.000000	99.762967  
3707.000000	99.784922  
3706.000000	99.824665  
3705.000000	99.862465  
3704.000000	99.886943  
3703.000000	99.896424  
3702.000000	99.897026  
3701.000000	99.901510  
3700.000000	99.922415  
3699.000000	99.952603  
3698.000000	99.964921  
3697.000000	99.944447  
3696.000000	99.909333  
3695.000000	99.888258  
3694.000000	99.881303  
3693.000000	99.859366  
3692.000000	99.801856  
3691.000000	99.725042  
3690.000000	99.665167  
3689.000000	99.637523  
3688.000000	99.634481  
3687.000000	99.649047  
3686.000000	99.666688  
3685.000000	99.663739  
3684.000000	99.640193  
3683.000000	99.625197  
3682.000000	99.640315  
3681.000000	99.667137  
3680.000000	99.665275  
3679.000000	99.625369  
3678.000000	99.585101  
3677.000000	99.588358  
3676.000000	99.618700  
3675.000000	99.619600  
3674.000000	99.596445  
3673.000000	99.583594  
3672.000000	99.575428  
3671.000000	99.563604  
3670.000000	99.553462  
3669.000000	99.557567  
3668.000000	99.592877  
3667.000000	99.648380  
3666.000000	99.688683  
3665.000000	99.690503  
3664.000000	99.657326  
3663.000000	99.610014  
3662.000000	99.569054  
3661.000000	99.542339  
3660.000000	99.525666  
3659.000000	99.510955  
3658.000000	99.490398  
3657.000000	99.460666  
3656.000000	99.426961  
3655.000000	99.406704  
3654.000000	99.404906  
3653.000000	99.398625  
3652.000000	99.370514  
3651.000000	99.336615  
3650.000000	99.325245  
3649.000000	99.340824  
3648.000000	99.359889  
3647.000000	99.358848  
3646.000000	99.335732  
3645.000000	99.303083  
3644.000000	99.273733  
3643.000000	99.254798  
3642.000000	99.248223  
3641.000000	99.251555  
3640.000000	99.258649  
3639.000000	99.262691  
3638.000000	99.263473  
3637.000000	99.267352  
3636.000000	99.270694  
3635.000000	99.251544  
3634.000000	99.190986  
3633.000000	99.103194  
3632.000000	99.030069  
3631.000000	99.007035  
3630.000000	99.024564  
3629.000000	99.021699  
3628.000000	98.972893  
3627.000000	98.931201  
3626.000000	98.928660  
3625.000000	98.942351  
3624.000000	98.950120  
3623.000000	98.948758  
3622.000000	98.940121  
3621.000000	98.920707  
3620.000000	98.884852  
3619.000000	98.835767  
3618.000000	98.791288  
3617.000000	98.766473  
3616.000000	98.751751  
3615.000000	98.720528  
3614.000000	98.654424  
3613.000000	98.560163  
3612.000000	98.468096  
3611.000000	98.412416  
3610.000000	98.405952  
3609.000000	98.430272  
3608.000000	98.451198  
3607.000000	98.445988  
3606.000000	98.410462  
3605.000000	98.343757  
3604.000000	98.246231  
3603.000000	98.134290  
3602.000000	98.044805  
3601.000000	98.011033  
3600.000000	98.031445  
3599.000000	98.069996  
3598.000000	98.089074  
3597.000000	98.078053  
3596.000000	98.044539  
3595.000000	97.989646  
3594.000000	97.901312  
3593.000000	97.775551  
3592.000000	97.629633  
3591.000000	97.496195  
3590.000000	97.407873  
3589.000000	97.382190  
3588.000000	97.406749  
3587.000000	97.447913  
3586.000000	97.479097  
3585.000000	97.488053  
3584.000000	97.462627  
3583.000000	97.391009  
3582.000000	97.277427  
3581.000000	97.148446  
3580.000000	97.037995  
3579.000000	96.965822  
3578.000000	96.927504  
3577.000000	96.902269  
3576.000000	96.865697  
3575.000000	96.801145  
3574.000000	96.707574  
3573.000000	96.598908  
3572.000000	96.492906  
3571.000000	96.398491  
3570.000000	96.313972  
3569.000000	96.235152  
3568.000000	96.162867  
3567.000000	96.101828  
3566.000000	96.054578  
3565.000000	96.017343  
3564.000000	95.978603  
3563.000000	95.924471  
3562.000000	95.851415  
3561.000000	95.773232  
3560.000000	95.709005  
3559.000000	95.661371  
3558.000000	95.609642  
3557.000000	95.528162  
3556.000000	95.410938  
3555.000000	95.277040  
3554.000000	95.153413  
3553.000000	95.053683  
3552.000000	94.972753  
3551.000000	94.899696  
3550.000000	94.831005  
3549.000000	94.769969  
3548.000000	94.716266  
3547.000000	94.658990  
3546.000000	94.583715  
3545.000000	94.489477  
3544.000000	94.392553  
3543.000000	94.308122  
3542.000000	94.231965  
3541.000000	94.144396  
3540.000000	94.030836  
3539.000000	93.895980  
3538.000000	93.760095  
3537.000000	93.644518  
3536.000000	93.557861  
3535.000000	93.491361  
3534.000000	93.424573  
3533.000000	93.339163  
3532.000000	93.229696  
3531.000000	93.103369  
3530.000000	92.970039  
3529.000000	92.836773  
3528.000000	92.711605  
3527.000000	92.605022  
3526.000000	92.519880  
3525.000000	92.441696  
3524.000000	92.346652  
3523.000000	92.222072  
3522.000000	92.075785  
3521.000000	91.924020  
3520.000000	91.774881  
3519.000000	91.627978  
3518.000000	91.486264  
3517.000000	91.359414  
3516.000000	91.251414  
3515.000000	91.150723  
3514.000000	91.039828  
3513.000000	90.914226  
3512.000000	90.786049  
3511.000000	90.668095  
3510.000000	90.559144  
3509.000000	90.448694  
3508.000000	90.331015  
3507.000000	90.207363  
3506.000000	90.076085  
3505.000000	89.930092  
3504.000000	89.767869  
3503.000000	89.602678  
3502.000000	89.454722  
3501.000000	89.332311  
3500.000000	89.221627  
3499.000000	89.095900  
3498.000000	88.938494  
3497.000000	88.761266  
3496.000000	88.595969  
3495.000000	88.461044  
3494.000000	88.338382  
3493.000000	88.191028  
3492.000000	88.004580  
3491.000000	87.805534  
3490.000000	87.634930  
3489.000000	87.507989  
3488.000000	87.403537  
3487.000000	87.288769  
3486.000000	87.147679  
3485.000000	86.985631  
3484.000000	86.815723  
3483.000000	86.645270  
3482.000000	86.471728  
3481.000000	86.287787  
3480.000000	86.090104  
3479.000000	85.883601  
3478.000000	85.676527  
3477.000000	85.472657  
3476.000000	85.271441  
3475.000000	85.076785  
3474.000000	84.901797  
3473.000000	84.759469  
3472.000000	84.646570  
3471.000000	84.538927  
3470.000000	84.406421  
3469.000000	84.235652  
3468.000000	84.040737  
3467.000000	83.851857  
3466.000000	83.691633  
3465.000000	83.560772  
3464.000000	83.444221  
3463.000000	83.328332  
3462.000000	83.209039  
3461.000000	83.085452  
3460.000000	82.952534  
3459.000000	82.805675  
3458.000000	82.650776  
3457.000000	82.504122  
3456.000000	82.379520  
3455.000000	82.276476  
3454.000000	82.180474  
3453.000000	82.072772  
3452.000000	81.941133  
3451.000000	81.786362  
3450.000000	81.621179  
3449.000000	81.461048  
3448.000000	81.312767  
3447.000000	81.171712  
3446.000000	81.032017  
3445.000000	80.897361  
3444.000000	80.778183  
3443.000000	80.678849  
3442.000000	80.590212  
3441.000000	80.496037  
3440.000000	80.385505  
3439.000000	80.259474  
3438.000000	80.127383  
3437.000000	80.000187  
3436.000000	79.884710  
3435.000000	79.781179  
3434.000000	79.683973  
3433.000000	79.586167  
3432.000000	79.485232  
3431.000000	79.383999  
3430.000000	79.284569  
3429.000000	79.182447  
3428.000000	79.070541  
3427.000000	78.950081  
3426.000000	78.833473  
3425.000000	78.731909  
3424.000000	78.641052  
3423.000000	78.544284  
3422.000000	78.432314  
3421.000000	78.315839  
3420.000000	78.214730  
3419.000000	78.135696  
3418.000000	78.064310  
3417.000000	77.979252  
3416.000000	77.872666  
3415.000000	77.756913  
3414.000000	77.651125  
3413.000000	77.558958  
3412.000000	77.460687  
3411.000000	77.332272  
3410.000000	77.174840  
3409.000000	77.019693  
3408.000000	76.897784  
3407.000000	76.806970  
3406.000000	76.716885  
3405.000000	76.604577  
3404.000000	76.476934  
3403.000000	76.355800  
3402.000000	76.250670  
3401.000000	76.154060  
3400.000000	76.058114  
3399.000000	75.965299  
3398.000000	75.880997  
3397.000000	75.802621  
3396.000000	75.721765  
3395.000000	75.635875  
3394.000000	75.553320  
3393.000000	75.484298  
3392.000000	75.427636  
3391.000000	75.369794  
3390.000000	75.298278  
3389.000000	75.213447  
3388.000000	75.125353  
3387.000000	75.041230  
3386.000000	74.959571  
3385.000000	74.875667  
3384.000000	74.789029  
3383.000000	74.704966  
3382.000000	74.631945  
3381.000000	74.576591  
3380.000000	74.536104  
3379.000000	74.494226  
3378.000000	74.430556  
3377.000000	74.338659  
3376.000000	74.233984  
3375.000000	74.141585  
3374.000000	74.076169  
3373.000000	74.033115  
3372.000000	73.994869  
3371.000000	73.944363  
3370.000000	73.875652  
3369.000000	73.795360  
3368.000000	73.714059  
3367.000000	73.637080  
3366.000000	73.566241  
3365.000000	73.508249  
3364.000000	73.472424  
3363.000000	73.455265  
3362.000000	73.433665  
3361.000000	73.382634  
3360.000000	73.300211  
3359.000000	73.209781  
3358.000000	73.137176  
3357.000000	73.089379  
3356.000000	73.055588  
3355.000000	73.023357  
3354.000000	72.990658  
3353.000000	72.964259  
3352.000000	72.949198  
3351.000000	72.939785  
3350.000000	72.920679  
3349.000000	72.878193  
3348.000000	72.812098  
3347.000000	72.737588  
3346.000000	72.676623  
3345.000000	72.645810  
3344.000000	72.646291  
3343.000000	72.659744  
3342.000000	72.657214  
3341.000000	72.620762  
3340.000000	72.560821  
3339.000000	72.508191  
3338.000000	72.484814  
3337.000000	72.483594  
3336.000000	72.477979  
3335.000000	72.448621  
3334.000000	72.398323  
3333.000000	72.346051  
3332.000000	72.313200  
3331.000000	72.312749  
3330.000000	72.341785  
3329.000000	72.380605  
3328.000000	72.404837  
3327.000000	72.403639  
3326.000000	72.383975  
3325.000000	72.356381  
3324.000000	72.323424  
3323.000000	72.287078  
3322.000000	72.260164  
3321.000000	72.258566  
3320.000000	72.281746  
3319.000000	72.309894  
3318.000000	72.323065  
3317.000000	72.316351  
3316.000000	72.294884  
3315.000000	72.264000  
3314.000000	72.231140  
3313.000000	72.209825  
3312.000000	72.211259  
3311.000000	72.233271  
3310.000000	72.264107  
3309.000000	72.295100  
3308.000000	72.322653  
3307.000000	72.340464  
3306.000000	72.340278  
3305.000000	72.323215  
3304.000000	72.302951  
3303.000000	72.293683  
3302.000000	72.299409  
3301.000000	72.317295  
3300.000000	72.345390  
3299.000000	72.381926  
3298.000000	72.421121  
3297.000000	72.455892  
3296.000000	72.484159  
3295.000000	72.508517  
3294.000000	72.530395  
3293.000000	72.548822  
3292.000000	72.565881  
3291.000000	72.589627  
3290.000000	72.627251  
3289.000000	72.674483  
3288.000000	72.714601  
3287.000000	72.732221  
3286.000000	72.729879  
3285.000000	72.728182  
3284.000000	72.746552  
3283.000000	72.785176  
3282.000000	72.828342  
3281.000000	72.863109  
3280.000000	72.890145  
3279.000000	72.917932  
3278.000000	72.953225  
3277.000000	72.998666  
3276.000000	73.053754  
3275.000000	73.114317  
3274.000000	73.174101  
3273.000000	73.229776  
3272.000000	73.282148  
3271.000000	73.331142  
3270.000000	73.373156  
3269.000000	73.405973  
3268.000000	73.433321  
3267.000000	73.461683  
3266.000000	73.494688  
3265.000000	73.532722  
3264.000000	73.575485  
3263.000000	73.622404  
3262.000000	73.673309  
3261.000000	73.731716  
3260.000000	73.804572  
3259.000000	73.894143  
3258.000000	73.990520  
3257.000000	74.075707  
3256.000000	74.137136  
3255.000000	74.177480  
3254.000000	74.212197  
3253.000000	74.257392  
3252.000000	74.317589  
3251.000000	74.384209  
3250.000000	74.447765  
3249.000000	74.511323  
3248.000000	74.587159  
3247.000000	74.677926  
3246.000000	74.766984  
3245.000000	74.834189  
3244.000000	74.879240  
3243.000000	74.922738  
3242.000000	74.984284  
3241.000000	75.065087  
3240.000000	75.151938  
3239.000000	75.231548  
3238.000000	75.298083  
3237.000000	75.352482  
3236.000000	75.401471  
3235.000000	75.456676  
3234.000000	75.528630  
3233.000000	75.618359  
3232.000000	75.716604  
3231.000000	75.813585  
3230.000000	75.908567  
3229.000000	76.007607  
3228.000000	76.112809  
3227.000000	76.217724  
3226.000000	76.315029  
3225.000000	76.405482  
3224.000000	76.495550  
3223.000000	76.587523  
3222.000000	76.676471  
3221.000000	76.758329  
3220.000000	76.838131  
3219.000000	76.927478  
3218.000000	77.033266  
3217.000000	77.148869  
3216.000000	77.257523  
3215.000000	77.347953  
3214.000000	77.428571  
3213.000000	77.521772  
3212.000000	77.638948  
3211.000000	77.763773  
3210.000000	77.867163  
3209.000000	77.939101  
3208.000000	77.998469  
3207.000000	78.069296  
3206.000000	78.154869  
3205.000000	78.240033  
3204.000000	78.313588  
3203.000000	78.381873  
3202.000000	78.461814  
3201.000000	78.564845  
3200.000000	78.686611  
3199.000000	78.809411  
3198.000000	78.916378  
3197.000000	79.006069  
3196.000000	79.092000  
3195.000000	79.187248  
3194.000000	79.293105  
3193.000000	79.404370  
3192.000000	79.520503  
3191.000000	79.646434  
3190.000000	79.784445  
3189.000000	79.929333  
3188.000000	80.070298  
3187.000000	80.195261  
3186.000000	80.296980  
3185.000000	80.379581  
3184.000000	80.457307  
3183.000000	80.542474  
3182.000000	80.635119  
3181.000000	80.726294  
3180.000000	80.809183  
3179.000000	80.885016  
3178.000000	80.962163  
3177.000000	81.052926  
3176.000000	81.165891  
3175.000000	81.294336  
3174.000000	81.414849  
3173.000000	81.505745  
3172.000000	81.568724  
3171.000000	81.628519  
3170.000000	81.711575  
3169.000000	81.827829  
3168.000000	81.968821  
3167.000000	82.115329  
3166.000000	82.247478  
3165.000000	82.356156  
3164.000000	82.448753  
3163.000000	82.541021  
3162.000000	82.643239  
3161.000000	82.756450  
3160.000000	82.877287  
3159.000000	82.998319  
3158.000000	83.106818  
3157.000000	83.196120  
3156.000000	83.280963  
3155.000000	83.389225  
3154.000000	83.530607  
3153.000000	83.681165  
3152.000000	83.807091  
3151.000000	83.898977  
3150.000000	83.974997  
3149.000000	84.055001  
3148.000000	84.141844  
3147.000000	84.227717  
3146.000000	84.309194  
3145.000000	84.391380  
3144.000000	84.481117  
3143.000000	84.579620  
3142.000000	84.680878  
3141.000000	84.776274  
3140.000000	84.861957  
3139.000000	84.942868  
3138.000000	85.029247  
3137.000000	85.128181  
3136.000000	85.237280  
3135.000000	85.346173  
3134.000000	85.445641  
3133.000000	85.536621  
3132.000000	85.628148  
3131.000000	85.724162  
3130.000000	85.815402  
3129.000000	85.889741  
3128.000000	85.949619  
3127.000000	86.012234  
3126.000000	86.090229  
3125.000000	86.178539  
3124.000000	86.264167  
3123.000000	86.342706  
3122.000000	86.418639  
3121.000000	86.493455  
3120.000000	86.562442  
3119.000000	86.623949  
3118.000000	86.684634  
3117.000000	86.751448  
3116.000000	86.821268  
3115.000000	86.882241  
3114.000000	86.925368  
3113.000000	86.953523  
3112.000000	86.979610  
3111.000000	87.017291  
3110.000000	87.073059  
3109.000000	87.144543  
3108.000000	87.222990  
3107.000000	87.296627  
3106.000000	87.355450  
3105.000000	87.397656  
3104.000000	87.431790  
3103.000000	87.469068  
3102.000000	87.512404  
3101.000000	87.555259  
3100.000000	87.591233  
3099.000000	87.621188  
3098.000000	87.650312  
3097.000000	87.682387  
3096.000000	87.718957  
3095.000000	87.760375  
3094.000000	87.804351  
3093.000000	87.845515  
3092.000000	87.879983  
3091.000000	87.910626  
3090.000000	87.946461  
3089.000000	87.996354  
3088.000000	88.061802  
3087.000000	88.133089  
3086.000000	88.192575  
3085.000000	88.226108  
3084.000000	88.234566  
3083.000000	88.233520  
3082.000000	88.240800  
3081.000000	88.264994  
3080.000000	88.304084  
3079.000000	88.350376  
3078.000000	88.394917  
3077.000000	88.431036  
3076.000000	88.457412  
3075.000000	88.477405  
3074.000000	88.495026  
3073.000000	88.513715  
3072.000000	88.538352  
3071.000000	88.572589  
3070.000000	88.610852  
3069.000000	88.637161  
3068.000000	88.636804  
3067.000000	88.608787  
3066.000000	88.565428  
3065.000000	88.523047  
3064.000000	88.495184  
3063.000000	88.488063  
3062.000000	88.494148  
3061.000000	88.491789  
3060.000000	88.460565  
3059.000000	88.401937  
3058.000000	88.341833  
3057.000000	88.309690  
3056.000000	88.315593  
3055.000000	88.346427  
3054.000000	88.378358  
3053.000000	88.390374  
3052.000000	88.372719  
3051.000000	88.332583  
3050.000000	88.293160  
3049.000000	88.279466  
3048.000000	88.298222  
3047.000000	88.331384  
3046.000000	88.351314  
3045.000000	88.340449  
3044.000000	88.295288  
3043.000000	88.217822  
3042.000000	88.111971  
3041.000000	87.987981  
3040.000000	87.860381  
3039.000000	87.735170  
3038.000000	87.602853  
3037.000000	87.449004  
3036.000000	87.269947  
3035.000000	87.075902  
3034.000000	86.883442  
3033.000000	86.709714  
3032.000000	86.570015  
3031.000000	86.474133  
3030.000000	86.424683  
3029.000000	86.421046  
3028.000000	86.460821  
3027.000000	86.533087  
3026.000000	86.616511  
3025.000000	86.693953  
3024.000000	86.766713  
3023.000000	86.843328  
3022.000000	86.913640  
3021.000000	86.946627  
3020.000000	86.921538  
3019.000000	86.856238  
3018.000000	86.798624  
3017.000000	86.791125  
3016.000000	86.843570  
3015.000000	86.933287  
3014.000000	87.025097  
3013.000000	87.092994  
3012.000000	87.129569  
3011.000000	87.139221  
3010.000000	87.125454  
3009.000000	87.087073  
3008.000000	87.025078  
3007.000000	86.949110  
3006.000000	86.876023  
3005.000000	86.823242  
3004.000000	86.801138  
3003.000000	86.807400  
3002.000000	86.829562  
3001.000000	86.856719  
3000.000000	86.887936  
2999.000000	86.925849  
2998.000000	86.965510  
2997.000000	86.996557  
2996.000000	87.015092  
2995.000000	87.025505  
2994.000000	87.029665  
2993.000000	87.021897  
2992.000000	86.997363  
2991.000000	86.960192  
2990.000000	86.921340  
2989.000000	86.892236  
2988.000000	86.879942  
2987.000000	86.882839  
2986.000000	86.890990  
2985.000000	86.895862  
2984.000000	86.897988  
2983.000000	86.897636  
2982.000000	86.879285  
2981.000000	86.814581  
2980.000000	86.682375  
2979.000000	86.479047  
2978.000000	86.207054  
2977.000000	85.854877  
2976.000000	85.379284  
2975.000000	84.703866  
2974.000000	83.769681  
2973.000000	82.642557  
2972.000000	81.579828  
2971.000000	80.930468  
2970.000000	80.899102  
2969.000000	81.384534  
2968.000000	82.059695  
2967.000000	82.611173  
2966.000000	82.908166  
2965.000000	82.979519  
2964.000000	82.896360  
2963.000000	82.701548  
2962.000000	82.414621  
2961.000000	82.057283  
2960.000000	81.660452  
2959.000000	81.255994  
2958.000000	80.863700  
2957.000000	80.483701  
2956.000000	80.104278  
2955.000000	79.720294  
2954.000000	79.341016  
2953.000000	78.979086  
2952.000000	78.639232  
2951.000000	78.321870  
2950.000000	78.031726  
2949.000000	77.776537  
2948.000000	77.559877  
2947.000000	77.380349  
2946.000000	77.236687  
2945.000000	77.129952  
2944.000000	77.060568  
2943.000000	77.024949  
2942.000000	77.016106  
2941.000000	77.029549  
2940.000000	77.070491  
2939.000000	77.152811  
2938.000000	77.284982  
2937.000000	77.455189  
2936.000000	77.633001  
2935.000000	77.788111  
2934.000000	77.908951  
2933.000000	78.006370  
2932.000000	78.102399  
2931.000000	78.212755  
2930.000000	78.336322  
2929.000000	78.462079  
2928.000000	78.587893  
2927.000000	78.728403  
2926.000000	78.900415  
2925.000000	79.104862  
2924.000000	79.328153  
2923.000000	79.555929  
2922.000000	79.777626  
2921.000000	79.982292  
2920.000000	80.162456  
2919.000000	80.324357  
2918.000000	80.485859  
2917.000000	80.659587  
2916.000000	80.841106  
2915.000000	81.015078  
2914.000000	81.170815  
2913.000000	81.312453  
2912.000000	81.457473  
2911.000000	81.624522  
2910.000000	81.818878  
2909.000000	82.028575  
2908.000000	82.235758  
2907.000000	82.430171  
2906.000000	82.610918  
2905.000000	82.780634  
2904.000000	82.942617  
2903.000000	83.099058  
2902.000000	83.245202  
2901.000000	83.368128  
2900.000000	83.458904  
2899.000000	83.525467  
2898.000000	83.586870  
2897.000000	83.653935  
2896.000000	83.719854  
2895.000000	83.769043  
2894.000000	83.790385  
2893.000000	83.782996  
2892.000000	83.754472  
2891.000000	83.713526  
2890.000000	83.660570  
2889.000000	83.587655  
2888.000000	83.492226  
2887.000000	83.387073  
2886.000000	83.288514  
2885.000000	83.196461  
2884.000000	83.095397  
2883.000000	82.975799  
2882.000000	82.845720  
2881.000000	82.718486  
2880.000000	82.597930  
2879.000000	82.481084  
2878.000000	82.369384  
2877.000000	82.270786  
2876.000000	82.193067  
2875.000000	82.139327  
2874.000000	82.108951  
2873.000000	82.100183  
2872.000000	82.111060  
2871.000000	82.137275  
2870.000000	82.169388  
2869.000000	82.197820  
2868.000000	82.226813  
2867.000000	82.279791  
2866.000000	82.380834  
2865.000000	82.528867  
2864.000000	82.698226  
2863.000000	82.866609  
2862.000000	83.033268  
2861.000000	83.206630  
2860.000000	83.385548  
2859.000000	83.562840  
2858.000000	83.740970  
2857.000000	83.932746  
2856.000000	84.145335  
2855.000000	84.368507  
2854.000000	84.579617  
2853.000000	84.759284  
2852.000000	84.904024  
2851.000000	85.024461  
2850.000000	85.129053  
2849.000000	85.210497  
2848.000000	85.253541  
2847.000000	85.257414  
2846.000000	85.243472  
2845.000000	85.235901  
2844.000000	85.239592  
2843.000000	85.241885  
2842.000000	85.232394  
2841.000000	85.214114  
2840.000000	85.195395  
2839.000000	85.178197  
2838.000000	85.158617  
2837.000000	85.136930  
2836.000000	85.122449  
2835.000000	85.125955  
2834.000000	85.148602  
2833.000000	85.181694  
2832.000000	85.219006  
2831.000000	85.266335  
2830.000000	85.335617  
2829.000000	85.432416  
2828.000000	85.554402  
2827.000000	85.700430  
2826.000000	85.873319  
2825.000000	86.071125  
2824.000000	86.282022  
2823.000000	86.492937  
2822.000000	86.700425  
2821.000000	86.909788  
2820.000000	87.126350  
2819.000000	87.351360  
2818.000000	87.583621  
2817.000000	87.820053  
2816.000000	88.055297  
2815.000000	88.285140  
2814.000000	88.510663  
2813.000000	88.734899  
2812.000000	88.953437  
2811.000000	89.151471  
2810.000000	89.314734  
2809.000000	89.444857  
2808.000000	89.562637  
2807.000000	89.693760  
2806.000000	89.849747  
2805.000000	90.021954  
2804.000000	90.192761  
2803.000000	90.350605  
2802.000000	90.494166  
2801.000000	90.626045  
2800.000000	90.747803  
2799.000000	90.861918  
2798.000000	90.974222  
2797.000000	91.090228  
2796.000000	91.208905  
2795.000000	91.322506  
2794.000000	91.424182  
2793.000000	91.515861  
2792.000000	91.607504  
2791.000000	91.707219  
2790.000000	91.812077  
2789.000000	91.910372  
2788.000000	91.994227  
2787.000000	92.068740  
2786.000000	92.147178  
2785.000000	92.238118  
2784.000000	92.339150  
2783.000000	92.442056  
2782.000000	92.540809  
2781.000000	92.633650  
2780.000000	92.720331  
2779.000000	92.800179  
2778.000000	92.872926  
2777.000000	92.940240  
2776.000000	93.006071  
2775.000000	93.075390  
2774.000000	93.151755  
2773.000000	93.235027  
2772.000000	93.320887  
2771.000000	93.402369  
2770.000000	93.472538  
2769.000000	93.527895  
2768.000000	93.571348  
2767.000000	93.612024  
2766.000000	93.660057  
2765.000000	93.719746  
2764.000000	93.787545  
2763.000000	93.856790  
2762.000000	93.923628  
2761.000000	93.987607  
2760.000000	94.047810  
2759.000000	94.101242  
2758.000000	94.146316  
2757.000000	94.186075  
2756.000000	94.225625  
2755.000000	94.267224  
2754.000000	94.310478  
2753.000000	94.356856  
2752.000000	94.410149  
2751.000000	94.471152  
2750.000000	94.535216  
2749.000000	94.597006  
2748.000000	94.654114  
2747.000000	94.703100  
2746.000000	94.736768  
2745.000000	94.752192  
2744.000000	94.759936  
2743.000000	94.777843  
2742.000000	94.813500  
2741.000000	94.857422  
2740.000000	94.895100  
2739.000000	94.920664  
2738.000000	94.936602  
2737.000000	94.946357  
2736.000000	94.953368  
2735.000000	94.964492  
2734.000000	94.986961  
2733.000000	95.019758  
2732.000000	95.051316  
2731.000000	95.068204  
2730.000000	95.066198  
2729.000000	95.053477  
2728.000000	95.044403  
2727.000000	95.049865  
2726.000000	95.070911  
2725.000000	95.099520  
2724.000000	95.125284  
2723.000000	95.142735  
2722.000000	95.154330  
2721.000000	95.168188  
2720.000000	95.193084  
2719.000000	95.233525  
2718.000000	95.286270  
2717.000000	95.339375  
2716.000000	95.376234  
2715.000000	95.385953  
2714.000000	95.373945  
2713.000000	95.360613  
2712.000000	95.364623  
2711.000000	95.387508  
2710.000000	95.418845  
2709.000000	95.455013  
2708.000000	95.504144  
2707.000000	95.569213  
2706.000000	95.635341  
2705.000000	95.682970  
2704.000000	95.709890  
2703.000000	95.731695  
2702.000000	95.762076  
2701.000000	95.800380  
2700.000000	95.838108  
2699.000000	95.869558  
2698.000000	95.894546  
2697.000000	95.916617  
2696.000000	95.940078  
2695.000000	95.964419  
2694.000000	95.981754  
2693.000000	95.985203  
2692.000000	95.979994  
2691.000000	95.980570  
2690.000000	95.995926  
2689.000000	96.022590  
2688.000000	96.051722  
2687.000000	96.077276  
2686.000000	96.097679  
2685.000000	96.116572  
2684.000000	96.142625  
2683.000000	96.181518  
2682.000000	96.226728  
2681.000000	96.264755  
2680.000000	96.289644  
2679.000000	96.304314  
2678.000000	96.307760  
2677.000000	96.293980  
2676.000000	96.269366  
2675.000000	96.259139  
2674.000000	96.284720  
2673.000000	96.338276  
2672.000000	96.387698  
2671.000000	96.405116  
2670.000000	96.386468  
2669.000000	96.349031  
2668.000000	96.317572  
2667.000000	96.309677  
2666.000000	96.325982  
2665.000000	96.353468  
2664.000000	96.381271  
2663.000000	96.410422  
2662.000000	96.444704  
2661.000000	96.478012  
2660.000000	96.499853  
2659.000000	96.511389  
2658.000000	96.526370  
2657.000000	96.553586  
2656.000000	96.584913  
2655.000000	96.604298  
2654.000000	96.605266  
2653.000000	96.597155  
2652.000000	96.596188  
2651.000000	96.611815  
2650.000000	96.639477  
2649.000000	96.665133  
2648.000000	96.677701  
2647.000000	96.677766  
2646.000000	96.674568  
2645.000000	96.676312  
2644.000000	96.684860  
2643.000000	96.697665  
2642.000000	96.711391  
2641.000000	96.723446  
2640.000000	96.732513  
2639.000000	96.739091  
2638.000000	96.745284  
2637.000000	96.753738  
2636.000000	96.766534  
2635.000000	96.784488  
2634.000000	96.807002  
2633.000000	96.832040  
2632.000000	96.855334  
2631.000000	96.870736  
2630.000000	96.875203  
2629.000000	96.874774  
2628.000000	96.881067  
2627.000000	96.898452  
2626.000000	96.919139  
2625.000000	96.935234  
2624.000000	96.949800  
2623.000000	96.968241  
2622.000000	96.983487  
2621.000000	96.981161  
2620.000000	96.959388  
2619.000000	96.933755  
2618.000000	96.921631  
2617.000000	96.929059  
2616.000000	96.951548  
2615.000000	96.977129  
2614.000000	96.988924  
2613.000000	96.977844  
2612.000000	96.956461  
2611.000000	96.949295  
2610.000000	96.965839  
2609.000000	96.994405  
2608.000000	97.025192  
2607.000000	97.063481  
2606.000000	97.110853  
2605.000000	97.147762  
2604.000000	97.150393  
2603.000000	97.118630  
2602.000000	97.074978  
2601.000000	97.040186  
2600.000000	97.020375  
2599.000000	97.013770  
2598.000000	97.017317  
2597.000000	97.025875  
2596.000000	97.034356  
2595.000000	97.043744  
2594.000000	97.060579  
2593.000000	97.088962  
2592.000000	97.124704  
2591.000000	97.156424  
2590.000000	97.171818  
2589.000000	97.166310  
2588.000000	97.147289  
2587.000000	97.126601  
2586.000000	97.108087  
2585.000000	97.086477  
2584.000000	97.058129  
2583.000000	97.026562  
2582.000000	96.996919  
2581.000000	96.972270  
2580.000000	96.956922  
2579.000000	96.956310  
2578.000000	96.971729  
2577.000000	97.001209  
2576.000000	97.045181  
2575.000000	97.102768  
2574.000000	97.162616  
2573.000000	97.208270  
2572.000000	97.234385  
2571.000000	97.246997  
2570.000000	97.247211  
2569.000000	97.228772  
2568.000000	97.195741  
2567.000000	97.167889  
2566.000000	97.160396  
2565.000000	97.168467  
2564.000000	97.177763  
2563.000000	97.179422  
2562.000000	97.171074  
2561.000000	97.157600  
2560.000000	97.156906  
2559.000000	97.187322  
2558.000000	97.237394  
2557.000000	97.263815  
2556.000000	97.236229  
2555.000000	97.174719  
2554.000000	97.127811  
2553.000000	97.121424  
2552.000000	97.143974  
2551.000000	97.172871  
2550.000000	97.196072  
2549.000000	97.209079  
2548.000000	97.209036  
2547.000000	97.198376  
2546.000000	97.186280  
2545.000000	97.182602  
2544.000000	97.192766  
2543.000000	97.215799  
2542.000000	97.242029  
2541.000000	97.255435  
2540.000000	97.244201  
2539.000000	97.208515  
2538.000000	97.157733  
2537.000000	97.106662  
2536.000000	97.076388  
2535.000000	97.085998  
2534.000000	97.131791  
2533.000000	97.181008  
2532.000000	97.199913  
2531.000000	97.188770  
2530.000000	97.179975  
2529.000000	97.200174  
2528.000000	97.241327  
2527.000000	97.273318  
2526.000000	97.281215  
2525.000000	97.282050  
2524.000000	97.299326  
2523.000000	97.325993  
2522.000000	97.327024  
2521.000000	97.285245  
2520.000000	97.231059  
2519.000000	97.211774  
2518.000000	97.240041  
2517.000000	97.289370  
2516.000000	97.332694  
2515.000000	97.362516  
2514.000000	97.375572  
2513.000000	97.365784  
2512.000000	97.340587  
2511.000000	97.321306  
2510.000000	97.316974  
2509.000000	97.317622  
2508.000000	97.323566  
2507.000000	97.358264  
2506.000000	97.434115  
2505.000000	97.522906  
2504.000000	97.581207  
2503.000000	97.596090  
2502.000000	97.589188  
2501.000000	97.584404  
2500.000000	97.588178  
2499.000000	97.594894  
2498.000000	97.595859  
2497.000000	97.585503  
2496.000000	97.569065  
2495.000000	97.559924  
2494.000000	97.561629  
2493.000000	97.560653  
2492.000000	97.546597  
2491.000000	97.531113  
2490.000000	97.535490  
2489.000000	97.565863  
2488.000000	97.610190  
2487.000000	97.652813  
2486.000000	97.682532  
2485.000000	97.694079  
2484.000000	97.692413  
2483.000000	97.690036  
2482.000000	97.692133  
2481.000000	97.691260  
2480.000000	97.683804  
2479.000000	97.682449  
2478.000000	97.703005  
2477.000000	97.746498  
2476.000000	97.801409  
2475.000000	97.853514  
2474.000000	97.885852  
2473.000000	97.882872  
2472.000000	97.848407  
2471.000000	97.809791  
2470.000000	97.791221  
2469.000000	97.791466  
2468.000000	97.799331  
2467.000000	97.819748  
2466.000000	97.866638  
2465.000000	97.934994  
2464.000000	97.996742  
2463.000000	98.024681  
2462.000000	98.011927  
2461.000000	97.973330  
2460.000000	97.937863  
2459.000000	97.932242  
2458.000000	97.957655  
2457.000000	97.985101  
2456.000000	97.986332  
2455.000000	97.968215  
2454.000000	97.966120  
2453.000000	98.003987  
2452.000000	98.068198  
2451.000000	98.117919  
2450.000000	98.115938  
2449.000000	98.057320  
2448.000000	97.978633  
2447.000000	97.934785  
2446.000000	97.955848  
2445.000000	98.024956  
2444.000000	98.099299  
2443.000000	98.145627  
2442.000000	98.152167  
2441.000000	98.121963  
2440.000000	98.071853  
2439.000000	98.031917  
2438.000000	98.027913  
2437.000000	98.059726  
2436.000000	98.103842  
2435.000000	98.136984  
2434.000000	98.153035  
2433.000000	98.160722  
2432.000000	98.171280  
2431.000000	98.186386  
2430.000000	98.195300  
2429.000000	98.188617  
2428.000000	98.175821  
2427.000000	98.179212  
2426.000000	98.206528  
2425.000000	98.241040  
2424.000000	98.265290  
2423.000000	98.282948  
2422.000000	98.308243  
2421.000000	98.344753  
2420.000000	98.385059  
2419.000000	98.421593  
2418.000000	98.446900  
2417.000000	98.452521  
2416.000000	98.439829  
2415.000000	98.424496  
2414.000000	98.418500  
2413.000000	98.414318  
2412.000000	98.398378  
2411.000000	98.374555  
2410.000000	98.363674  
2409.000000	98.384279  
2408.000000	98.441020  
2407.000000	98.522116  
2406.000000	98.596978  
2405.000000	98.627295  
2404.000000	98.599841  
2403.000000	98.547233  
2402.000000	98.522420  
2401.000000	98.551053  
2400.000000	98.615205  
2399.000000	98.678557  
2398.000000	98.716270  
2397.000000	98.723479  
2396.000000	98.709344  
2395.000000	98.689467  
2394.000000	98.679060  
2393.000000	98.688201  
2392.000000	98.720064  
2391.000000	98.768317  
2390.000000	98.816455  
2389.000000	98.849017  
2388.000000	98.868180  
2387.000000	98.891457  
2386.000000	98.928321  
2385.000000	98.967876  
2384.000000	98.996092  
2383.000000	99.015226  
2382.000000	99.034490  
2381.000000	99.048056  
2380.000000	99.037057  
2379.000000	98.993258  
2378.000000	98.929472  
2377.000000	98.867378  
2376.000000	98.828753  
2375.000000	98.833595  
2374.000000	98.887414  
2373.000000	98.973351  
2372.000000	99.076122  
2371.000000	99.205351  
2370.000000	99.361592  
2369.000000	99.489386  
2368.000000	99.525003  
2367.000000	99.499117  
2366.000000	99.516135  
2365.000000	99.597059  
2364.000000	99.619668  
2363.000000	99.476909  
2362.000000	99.222070  
2361.000000	99.013700  
2360.000000	98.970848  
2359.000000	99.078231  
2358.000000	99.223455  
2357.000000	99.301606  
2356.000000	99.298331  
2355.000000	99.280984  
2354.000000	99.285151  
2353.000000	99.295529  
2352.000000	99.298629  
2351.000000	99.302637  
2350.000000	99.314369  
2349.000000	99.318528  
2348.000000	99.325340  
2347.000000	99.362189  
2346.000000	99.431264  
2345.000000	99.471512  
2344.000000	99.420049  
2343.000000	99.319724  
2342.000000	99.232366  
2341.000000	99.179544  
2340.000000	99.150133  
2339.000000	99.131140  
2338.000000	99.123595  
2337.000000	99.139194  
2336.000000	99.192221  
2335.000000	99.271670  
2334.000000	99.328774  
2333.000000	99.323578  
2332.000000	99.276738  
2331.000000	99.247332  
2330.000000	99.278332  
2329.000000	99.344511  
2328.000000	99.419466  
2327.000000	99.483173  
2326.000000	99.518447  
2325.000000	99.504961  
2324.000000	99.433442  
2323.000000	99.336848  
2322.000000	99.247430  
2321.000000	99.192259  
2320.000000	99.187124  
2319.000000	99.238595  
2318.000000	99.322198  
2317.000000	99.383979  
2316.000000	99.390982  
2315.000000	99.353737  
2314.000000	99.317216  
2313.000000	99.316172  
2312.000000	99.364363  
2311.000000	99.444395  
2310.000000	99.517950  
2309.000000	99.545779  
2308.000000	99.525782  
2307.000000	99.493267  
2306.000000	99.482549  
2305.000000	99.496617  
2304.000000	99.516663  
2303.000000	99.525425  
2302.000000	99.511403  
2301.000000	99.468312  
2300.000000	99.408857  
2299.000000	99.361622  
2298.000000	99.345058  
2297.000000	99.343941  
2296.000000	99.331869  
2295.000000	99.300564  
2294.000000	99.262324  
2293.000000	99.228736  
2292.000000	99.203846  
2291.000000	99.188688  
2290.000000	99.176667  
2289.000000	99.152137  
2288.000000	99.105029  
2287.000000	99.046352  
2286.000000	98.995799  
2285.000000	98.962699  
2284.000000	98.945970  
2283.000000	98.945910  
2282.000000	98.959794  
2281.000000	98.974588  
2280.000000	98.978118  
2279.000000	98.974966  
2278.000000	98.978267  
2277.000000	98.992478  
2276.000000	99.015477  
2275.000000	99.046080  
2274.000000	99.075758  
2273.000000	99.082021  
2272.000000	99.050803  
2271.000000	98.999583  
2270.000000	98.963656  
2269.000000	98.962176  
2268.000000	98.986077  
2267.000000	99.010687  
2266.000000	99.011595  
2265.000000	98.981543  
2264.000000	98.943789  
2263.000000	98.931769  
2262.000000	98.943797  
2261.000000	98.938997  
2260.000000	98.896334  
2259.000000	98.856724  
2258.000000	98.875197  
2257.000000	98.945006  
2256.000000	98.998529  
2255.000000	98.981592  
2254.000000	98.903929  
2253.000000	98.821059  
2252.000000	98.789443  
2251.000000	98.830562  
2250.000000	98.912571  
2249.000000	98.967688  
2248.000000	98.953295  
2247.000000	98.896690  
2246.000000	98.864276  
2245.000000	98.891188  
2244.000000	98.956086  
2243.000000	99.016499  
2242.000000	99.046746  
2241.000000	99.046726  
2240.000000	99.035819  
2239.000000	99.038903  
2238.000000	99.063126  
2237.000000	99.090230  
2236.000000	99.102079  
2235.000000	99.103054  
2234.000000	99.102816  
2233.000000	99.093677  
2232.000000	99.068258  
2231.000000	99.045901  
2230.000000	99.052448  
2229.000000	99.080182  
2228.000000	99.096393  
2227.000000	99.088803  
2226.000000	99.075891  
2225.000000	99.072673  
2224.000000	99.071415  
2223.000000	99.060236  
2222.000000	99.040738  
2221.000000	99.021965  
2220.000000	99.009926  
2219.000000	99.003386  
2218.000000	98.989533  
2217.000000	98.949960  
2216.000000	98.885917  
2215.000000	98.831616  
2214.000000	98.826493  
2213.000000	98.877359  
2212.000000	98.959071  
2211.000000	99.043178  
2210.000000	99.109647  
2209.000000	99.142042  
2208.000000	99.135801  
2207.000000	99.109722  
2206.000000	99.091346  
2205.000000	99.090094  
2204.000000	99.094907  
2203.000000	99.093263  
2202.000000	99.081562  
2201.000000	99.065732  
2200.000000	99.065501  
2199.000000	99.107602  
2198.000000	99.194711  
2197.000000	99.284337  
2196.000000	99.318317  
2195.000000	99.277273  
2194.000000	99.198319  
2193.000000	99.142514  
2192.000000	99.149023  
2191.000000	99.210616  
2190.000000	99.280832  
2189.000000	99.308481  
2188.000000	99.274800  
2187.000000	99.197250  
2186.000000	99.104213  
2185.000000	99.020837  
2184.000000	98.973665  
2183.000000	98.983039  
2182.000000	99.041269  
2181.000000	99.115962  
2180.000000	99.182893  
2179.000000	99.237997  
2178.000000	99.275143  
2177.000000	99.278582  
2176.000000	99.245388  
2175.000000	99.192843  
2174.000000	99.138336  
2173.000000	99.094405  
2172.000000	99.081679  
2171.000000	99.114017  
2170.000000	99.164639  
2169.000000	99.178680  
2168.000000	99.130648  
2167.000000	99.041754  
2166.000000	98.937838  
2165.000000	98.832443  
2164.000000	98.760461  
2163.000000	98.774188  
2162.000000	98.871940  
2161.000000	98.968340  
2160.000000	98.980391  
2159.000000	98.921534  
2158.000000	98.869235  
2157.000000	98.870149  
2156.000000	98.917117  
2155.000000	98.979581  
2154.000000	99.019790  
2153.000000	99.011319  
2152.000000	98.965224  
2151.000000	98.913999  
2150.000000	98.863976  
2149.000000	98.795912  
2148.000000	98.714439  
2147.000000	98.651176  
2146.000000	98.605658  
2145.000000	98.532529  
2144.000000	98.416076  
2143.000000	98.317045  
2142.000000	98.310792  
2141.000000	98.404226  
2140.000000	98.540635  
2139.000000	98.661959  
2138.000000	98.736376  
2137.000000	98.748910  
2136.000000	98.705846  
2135.000000	98.644724  
2134.000000	98.612262  
2133.000000	98.625826  
2132.000000	98.663692  
2131.000000	98.688463  
2130.000000	98.675125  
2129.000000	98.627170  
2128.000000	98.572693  
2127.000000	98.538141  
2126.000000	98.524503  
2125.000000	98.515879  
2124.000000	98.506210  
2123.000000	98.503658  
2122.000000	98.513467  
2121.000000	98.534395  
2120.000000	98.567341  
2119.000000	98.605514  
2118.000000	98.620669  
2117.000000	98.589848  
2116.000000	98.539741  
2115.000000	98.533123  
2114.000000	98.599508  
2113.000000	98.703912  
2112.000000	98.794374  
2111.000000	98.851921  
2110.000000	98.880060  
2109.000000	98.880665  
2108.000000	98.867646  
2107.000000	98.877219  
2106.000000	98.929828  
2105.000000	98.992960  
2104.000000	99.009831  
2103.000000	98.960518  
2102.000000	98.877120  
2101.000000	98.807402  
2100.000000	98.781139  
2099.000000	98.805192  
2098.000000	98.869978  
2097.000000	98.953655  
2096.000000	99.027448  
2095.000000	99.063566  
2094.000000	99.047798  
2093.000000	98.995657  
2092.000000	98.949593  
2091.000000	98.944025  
2090.000000	98.973785  
2089.000000	99.008279  
2088.000000	99.029318  
2087.000000	99.036383  
2086.000000	99.025606  
2085.000000	98.995487  
2084.000000	98.970183  
2083.000000	98.982287  
2082.000000	99.027982  
2081.000000	99.070621  
2080.000000	99.092997  
2079.000000	99.110578  
2078.000000	99.126705  
2077.000000	99.118172  
2076.000000	99.083108  
2075.000000	99.062354  
2074.000000	99.087608  
2073.000000	99.140213  
2072.000000	99.185211  
2071.000000	99.216497  
2070.000000	99.243609  
2069.000000	99.262660  
2068.000000	99.266402  
2067.000000	99.258514  
2066.000000	99.235168  
2065.000000	99.177811  
2064.000000	99.088185  
2063.000000	99.006503  
2062.000000	98.971364  
2061.000000	98.979559  
2060.000000	99.001560  
2059.000000	99.017250  
2058.000000	99.022374  
2057.000000	99.022816  
2056.000000	99.036926  
2055.000000	99.080624  
2054.000000	99.139207  
2053.000000	99.180901  
2052.000000	99.206490  
2051.000000	99.250899  
2050.000000	99.320996  
2049.000000	99.367782  
2048.000000	99.348907  
2047.000000	99.285914  
2046.000000	99.229571  
2045.000000	99.202722  
2044.000000	99.197294  
2043.000000	99.191935  
2042.000000	99.160053  
2041.000000	99.101753  
2040.000000	99.073908  
2039.000000	99.134547  
2038.000000	99.248692  
2037.000000	99.312794  
2036.000000	99.294017  
2035.000000	99.271098  
2034.000000	99.302023  
2033.000000	99.333938  
2032.000000	99.297452  
2031.000000	99.212989  
2030.000000	99.144395  
2029.000000	99.116449  
2028.000000	99.129256  
2027.000000	99.186303  
2026.000000	99.251441  
2025.000000	99.243041  
2024.000000	99.138556  
2023.000000	99.031177  
2022.000000	99.020721  
2021.000000	99.092827  
2020.000000	99.163137  
2019.000000	99.198636  
2018.000000	99.231560  
2017.000000	99.283275  
2016.000000	99.335214  
2015.000000	99.363489  
2014.000000	99.362196  
2013.000000	99.346873  
2012.000000	99.355888  
2011.000000	99.417850  
2010.000000	99.496299  
2009.000000	99.504802  
2008.000000	99.407946  
2007.000000	99.268887  
2006.000000	99.168332  
2005.000000	99.120620  
2004.000000	99.096603  
2003.000000	99.085272  
2002.000000	99.100164  
2001.000000	99.152081  
2000.000000	99.236008  
1999.000000	99.323290  
1998.000000	99.363284  
1997.000000	99.326572  
1996.000000	99.245699  
1995.000000	99.171817  
1994.000000	99.097997  
1993.000000	98.980292  
1992.000000	98.839730  
1991.000000	98.770840  
1990.000000	98.820085  
1989.000000	98.923038  
1988.000000	98.989391  
1987.000000	98.994664  
1986.000000	98.966292  
1985.000000	98.936025  
1984.000000	98.937825  
1983.000000	99.001118  
1982.000000	99.104923  
1981.000000	99.174460  
1980.000000	99.158078  
1979.000000	99.077988  
1978.000000	98.988569  
1977.000000	98.929891  
1976.000000	98.934170  
1975.000000	99.011542  
1974.000000	99.103959  
1973.000000	99.121331  
1972.000000	99.052077  
1971.000000	98.976593  
1970.000000	98.959300  
1969.000000	98.992716  
1968.000000	99.054476  
1967.000000	99.142212  
1966.000000	99.225528  
1965.000000	99.241864  
1964.000000	99.175944  
1963.000000	99.080211  
1962.000000	98.996457  
1961.000000	98.917053  
1960.000000	98.839107  
1959.000000	98.790820  
1958.000000	98.780633  
1957.000000	98.782479  
1956.000000	98.790747  
1955.000000	98.827373  
1954.000000	98.877180  
1953.000000	98.884157  
1952.000000	98.836640  
1951.000000	98.790986  
1950.000000	98.782242  
1949.000000	98.774656  
1948.000000	98.734192  
1947.000000	98.687493  
1946.000000	98.668003  
1945.000000	98.659994  
1944.000000	98.641060  
1943.000000	98.633356  
1942.000000	98.664265  
1941.000000	98.715183  
1940.000000	98.754822  
1939.000000	98.783136  
1938.000000	98.806283  
1937.000000	98.809145  
1936.000000	98.784919  
1935.000000	98.757828  
1934.000000	98.748843  
1933.000000	98.750919  
1932.000000	98.759185  
1931.000000	98.787908  
1930.000000	98.830855  
1929.000000	98.846130  
1928.000000	98.812340  
1927.000000	98.762301  
1926.000000	98.736230  
1925.000000	98.734984  
1924.000000	98.743616  
1923.000000	98.764838  
1922.000000	98.798125  
1921.000000	98.823156  
1920.000000	98.834969  
1919.000000	98.861491  
1918.000000	98.913775  
1917.000000	98.951728  
1916.000000	98.938750  
1915.000000	98.895062  
1914.000000	98.867683  
1913.000000	98.878267  
1912.000000	98.914567  
1911.000000	98.948242  
1910.000000	98.943520  
1909.000000	98.880925  
1908.000000	98.792945  
1907.000000	98.741690  
1906.000000	98.749063  
1905.000000	98.776585  
1904.000000	98.785007  
1903.000000	98.779019  
1902.000000	98.773821  
1901.000000	98.761208  
1900.000000	98.735704  
1899.000000	98.717691  
1898.000000	98.724230  
1897.000000	98.744508  
1896.000000	98.767695  
1895.000000	98.805444  
1894.000000	98.859607  
1893.000000	98.900951  
1892.000000	98.905898  
1891.000000	98.884723  
1890.000000	98.855600  
1889.000000	98.821917  
1888.000000	98.791716  
1887.000000	98.784828  
1886.000000	98.801795  
1885.000000	98.814574  
1884.000000	98.806990  
1883.000000	98.797654  
1882.000000	98.802655  
1881.000000	98.810884  
1880.000000	98.817297  
1879.000000	98.841757  
1878.000000	98.890793  
1877.000000	98.933675  
1876.000000	98.942575  
1875.000000	98.926637  
1874.000000	98.901863  
1873.000000	98.862533  
1872.000000	98.808984  
1871.000000	98.770729  
1870.000000	98.770612  
1869.000000	98.787638  
1868.000000	98.795009  
1867.000000	98.803256  
1866.000000	98.826059  
1865.000000	98.847862  
1864.000000	98.850067  
1863.000000	98.837475  
1862.000000	98.820554  
1861.000000	98.795508  
1860.000000	98.764288  
1859.000000	98.746945  
1858.000000	98.748896  
1857.000000	98.743360  
1856.000000	98.711476  
1855.000000	98.672698  
1854.000000	98.651404  
1853.000000	98.641308  
1852.000000	98.626806  
1851.000000	98.608761  
1850.000000	98.587350  
1849.000000	98.547178  
1848.000000	98.485975  
1847.000000	98.435565  
1846.000000	98.431106  
1845.000000	98.472472  
1844.000000	98.529212  
1843.000000	98.571161  
1842.000000	98.573769  
1841.000000	98.525932  
1840.000000	98.452883  
1839.000000	98.401533  
1838.000000	98.389436  
1837.000000	98.386531  
1836.000000	98.364991  
1835.000000	98.334436  
1834.000000	98.307764  
1833.000000	98.275586  
1832.000000	98.235782  
1831.000000	98.213080  
1830.000000	98.219664  
1829.000000	98.225984  
1828.000000	98.206427  
1827.000000	98.179716  
1826.000000	98.170956  
1825.000000	98.162703  
1824.000000	98.124361  
1823.000000	98.063722  
1822.000000	98.004637  
1821.000000	97.947091  
1820.000000	97.882317  
1819.000000	97.822293  
1818.000000	97.781511  
1817.000000	97.741965  
1816.000000	97.674358  
1815.000000	97.577543  
1814.000000	97.466095  
1813.000000	97.342647  
1812.000000	97.207898  
1811.000000	97.082120  
1810.000000	96.984187  
1809.000000	96.901505  
1808.000000	96.813234  
1807.000000	96.718866  
1806.000000	96.617968  
1805.000000	96.490059  
1804.000000	96.322945  
1803.000000	96.140489  
1802.000000	95.975403  
1801.000000	95.829757  
1800.000000	95.682697  
1799.000000	95.521799  
1798.000000	95.339593  
1797.000000	95.121896  
1796.000000	94.867158  
1795.000000	94.596061  
1794.000000	94.329724  
1793.000000	94.075886  
1792.000000	93.845136  
1791.000000	93.647585  
1790.000000	93.456511  
1789.000000	93.227406  
1788.000000	92.958914  
1787.000000	92.696607  
1786.000000	92.475016  
1785.000000	92.273925  
1784.000000	92.052683  
1783.000000	91.799114  
1782.000000	91.515759  
1781.000000	91.199760  
1780.000000	90.857593  
1779.000000	90.499575  
1778.000000	90.094339  
1777.000000	89.574423  
1776.000000	88.915949  
1775.000000	88.171018  
1774.000000	87.406985  
1773.000000	86.650150  
1772.000000	85.912026  
1771.000000	85.206834  
1770.000000	84.500653  
1769.000000	83.715109  
1768.000000	82.812207  
1767.000000	81.841245  
1766.000000	80.866278  
1765.000000	79.876277  
1764.000000	78.812647  
1763.000000	77.663106  
1762.000000	76.518073  
1761.000000	75.500237  
1760.000000	74.625023  
1759.000000	73.788493  
1758.000000	72.860152  
1757.000000	71.782988  
1756.000000	70.634324  
1755.000000	69.539334  
1754.000000	68.543399  
1753.000000	67.623774  
1752.000000	66.766794  
1751.000000	65.985888  
1750.000000	65.273511  
1749.000000	64.579283  
1748.000000	63.863204  
1747.000000	63.132624  
1746.000000	62.419344  
1745.000000	61.750822  
1744.000000	61.142574  
1743.000000	60.595715  
1742.000000	60.099457  
1741.000000	59.656937  
1740.000000	59.322339  
1739.000000	59.175171  
1738.000000	59.249393  
1737.000000	59.590605  
1736.000000	60.365284  
1735.000000	61.785392  
1734.000000	63.601440  
1733.000000	65.081102  
1732.000000	65.866197  
1731.000000	66.131800  
1730.000000	66.163336  
1729.000000	66.199896  
1728.000000	66.358064  
1727.000000	66.636343  
1726.000000	67.009987  
1725.000000	67.488831  
1724.000000	68.068628  
1723.000000	68.693806  
1722.000000	69.312807  
1721.000000	69.940616  
1720.000000	70.653177  
1719.000000	71.547226  
1718.000000	72.665992  
1717.000000	73.918765  
1716.000000	75.169335  
1715.000000	76.386200  
1714.000000	77.605662  
1713.000000	78.833451  
1712.000000	80.048073  
1711.000000	81.244640  
1710.000000	82.424435  
1709.000000	83.568362  
1708.000000	84.669633  
1707.000000	85.763194  
1706.000000	86.849176  
1705.000000	87.809226  
1704.000000	88.535452  
1703.000000	89.081755  
1702.000000	89.619300  
1701.000000	90.288958  
1700.000000	91.000259  
1699.000000	91.554871  
1698.000000	91.937933  
1697.000000	92.266741  
1696.000000	92.627108  
1695.000000	92.981884  
1694.000000	93.228230  
1693.000000	93.343853  
1692.000000	93.394040  
1691.000000	93.447305  
1690.000000	93.511870  
1689.000000	93.552637  
1688.000000	93.561581  
1687.000000	93.563227  
1686.000000	93.574108  
1685.000000	93.573886  
1684.000000	93.557031  
1683.000000	93.555161  
1682.000000	93.535379  
1681.000000	93.460916  
1680.000000	93.371370  
1679.000000	93.309438  
1678.000000	93.263571  
1677.000000	93.191104  
1676.000000	93.088658  
1675.000000	92.993552  
1674.000000	92.903812  
1673.000000	92.771298  
1672.000000	92.585354  
1671.000000	92.386467  
1670.000000	92.191913  
1669.000000	91.976588  
1668.000000	91.738153  
1667.000000	91.498145  
1666.000000	91.244406  
1665.000000	90.927506  
1664.000000	90.512508  
1663.000000	90.020502  
1662.000000	89.487935  
1661.000000	88.907463  
1660.000000	88.263125  
1659.000000	87.577088  
1658.000000	86.869080  
1657.000000	86.140238  
1656.000000	85.343788  
1655.000000	84.359004  
1654.000000	82.895882  
1653.000000	81.019840  
1652.000000	79.410619  
1651.000000	78.264075  
1650.000000	77.218110  
1649.000000	75.940873  
1648.000000	74.203087  
1647.000000	72.105715  
1646.000000	70.050677  
1645.000000	68.261559  
1644.000000	66.652909  
1643.000000	65.117270  
1642.000000	63.599561  
1641.000000	62.084686  
1640.000000	60.636718  
1639.000000	59.336499  
1638.000000	58.146452  
1637.000000	56.899714  
1636.000000	55.583612  
1635.000000	54.520778  
1634.000000	53.911326  
1633.000000	53.591725  
1632.000000	53.398119  
1631.000000	53.326655  
1630.000000	53.430046  
1629.000000	53.722796  
1628.000000	54.187193  
1627.000000	54.820759  
1626.000000	55.629489  
1625.000000	56.629581  
1624.000000	57.863010  
1623.000000	59.325557  
1622.000000	60.879414  
1621.000000	62.361712  
1620.000000	63.758020  
1619.000000	65.206548  
1618.000000	66.888947  
1617.000000	68.818011  
1616.000000	70.726509  
1615.000000	72.365718  
1614.000000	73.757196  
1613.000000	75.045090  
1612.000000	76.311965  
1611.000000	77.545472  
1610.000000	78.703322  
1609.000000	79.778856  
1608.000000	80.783018  
1607.000000	81.708188  
1606.000000	82.544520  
1605.000000	83.304934  
1604.000000	84.003714  
1603.000000	84.636449  
1602.000000	85.203300  
1601.000000	85.723750  
1600.000000	86.210307  
1599.000000	86.652958  
1598.000000	87.045632  
1597.000000	87.404054  
1596.000000	87.743315  
1595.000000	88.060501  
1594.000000	88.352727  
1593.000000	88.630956  
1592.000000	88.901041  
1591.000000	89.151560  
1590.000000	89.376095  
1589.000000	89.590853  
1588.000000	89.813367  
1587.000000	90.038090  
1586.000000	90.248686  
1585.000000	90.442381  
1584.000000	90.627938  
1583.000000	90.805513  
1582.000000	90.966195  
1581.000000	91.105140  
1580.000000	91.222001  
1579.000000	91.318800  
1578.000000	91.411720  
1577.000000	91.534934  
1576.000000	91.699672  
1575.000000	91.857951  
1574.000000	91.955147  
1573.000000	91.998214  
1572.000000	92.031223  
1571.000000	92.086152  
1570.000000	92.167068  
1569.000000	92.262623  
1568.000000	92.350912  
1567.000000	92.403349  
1566.000000	92.417625  
1565.000000	92.420797  
1564.000000	92.434654  
1563.000000	92.446797  
1562.000000	92.437384  
1561.000000	92.418033  
1560.000000	92.445916  
1559.000000	92.546459  
1558.000000	92.683667  
1557.000000	92.771675  
1556.000000	92.784298  
1555.000000	92.778326  
1554.000000	92.781915  
1553.000000	92.788527  
1552.000000	92.789283  
1551.000000	92.793136  
1550.000000	92.814673  
1549.000000	92.852912  
1548.000000	92.888046  
1547.000000	92.897396  
1546.000000	92.872612  
1545.000000	92.827356  
1544.000000	92.792695  
1543.000000	92.785218  
1542.000000	92.786687  
1541.000000	92.767629  
1540.000000	92.745870  
1539.000000	92.768507  
1538.000000	92.803275  
1537.000000	92.796552  
1536.000000	92.756819  
1535.000000	92.712557  
1534.000000	92.676463  
1533.000000	92.649789  
1532.000000	92.627038  
1531.000000	92.591327  
1530.000000	92.533037  
1529.000000	92.458015  
1528.000000	92.380865  
1527.000000	92.314503  
1526.000000	92.255769  
1525.000000	92.189975  
1524.000000	92.110578  
1523.000000	92.029317  
1522.000000	91.965996  
1521.000000	91.931052  
1520.000000	91.902366  
1519.000000	91.834487  
1518.000000	91.709118  
1517.000000	91.552379  
1516.000000	91.409112  
1515.000000	91.287421  
1514.000000	91.148012  
1513.000000	90.958557  
1512.000000	90.715595  
1511.000000	90.432371  
1510.000000	90.110878  
1509.000000	89.725242  
1508.000000	89.223717  
1507.000000	88.593498  
1506.000000	87.949914  
1505.000000	87.364065  
1504.000000	86.777757  
1503.000000	86.141498  
1502.000000	85.440388  
1501.000000	84.692914  
1500.000000	83.948219  
1499.000000	83.243333  
1498.000000	82.589141  
1497.000000	82.022749  
1496.000000	81.620578  
1495.000000	81.402186  
1494.000000	81.308566  
1493.000000	81.296939  
1492.000000	81.366989  
1491.000000	81.503833  
1490.000000	81.649744  
1489.000000	81.746350  
1488.000000	81.761425  
1487.000000	81.668602  
1486.000000	81.446722  
1485.000000	81.102085  
1484.000000	80.658592  
1483.000000	80.119885  
1482.000000	79.485420  
1481.000000	78.803280  
1480.000000	78.152789  
1479.000000	77.575491  
1478.000000	77.079825  
1477.000000	76.696036  
1476.000000	76.472477  
1475.000000	76.432452  
1474.000000	76.576136  
1473.000000	76.890948  
1472.000000	77.298305  
1471.000000	77.664678  
1470.000000	77.909457  
1469.000000	78.032546  
1468.000000	78.055322  
1467.000000	77.981931  
1466.000000	77.803527  
1465.000000	77.535106  
1464.000000	77.228554  
1463.000000	76.917214  
1462.000000	76.588559  
1461.000000	76.225306  
1460.000000	75.806696  
1459.000000	75.266503  
1458.000000	74.501697  
1457.000000	73.607596  
1456.000000	72.937234  
1455.000000	72.640947  
1454.000000	72.568983  
1453.000000	72.563345  
1452.000000	72.545191  
1451.000000	72.509051  
1450.000000	72.503251  
1449.000000	72.590601  
1448.000000	72.794609  
1447.000000	73.073989  
1446.000000	73.363162  
1445.000000	73.620391  
1444.000000	73.828167  
1443.000000	73.983271  
1442.000000	74.100748  
1441.000000	74.203458  
1440.000000	74.297338  
1439.000000	74.363479  
1438.000000	74.374347  
1437.000000	74.320182  
1436.000000	74.240343  
1435.000000	74.190348  
1434.000000	74.182199  
1433.000000	74.187935  
1432.000000	74.155829  
1431.000000	74.027002  
1430.000000	73.774614  
1429.000000	73.422578  
1428.000000	73.020612  
1427.000000	72.603444  
1426.000000	72.172611  
1425.000000	71.726540  
1424.000000	71.302333  
1423.000000	70.953864  
1422.000000	70.686026  
1421.000000	70.451034  
1420.000000	70.201918  
1419.000000	69.944734  
1418.000000	69.735004  
1417.000000	69.603831  
1416.000000	69.545022  
1415.000000	69.551169  
1414.000000	69.607525  
1413.000000	69.679285  
1412.000000	69.720150  
1411.000000	69.694442  
1410.000000	69.591965  
1409.000000	69.415456  
1408.000000	69.157681  
1407.000000	68.796874  
1406.000000	68.307988  
1405.000000	67.688271  
1404.000000	66.981748  
1403.000000	66.249008  
1402.000000	65.498254  
1401.000000	64.678331  
1400.000000	63.760838  
1399.000000	62.812604  
1398.000000	61.930959  
1397.000000	61.133128  
1396.000000	60.390362  
1395.000000	59.720952  
1394.000000	59.180452  
1393.000000	58.790879  
1392.000000	58.531268  
1391.000000	58.370438  
1390.000000	58.273315  
1389.000000	58.210981  
1388.000000	58.185508  
1387.000000	58.214108  
1386.000000	58.277138  
1385.000000	58.324123  
1384.000000	58.331557  
1383.000000	58.316436  
1382.000000	58.304421  
1381.000000	58.311930  
1380.000000	58.356764  
1379.000000	58.455244  
1378.000000	58.597658  
1377.000000	58.754164  
1376.000000	58.915252  
1375.000000	59.101583  
1374.000000	59.320164  
1373.000000	59.543824  
1372.000000	59.763178  
1371.000000	60.012887  
1370.000000	60.288862  
1369.000000	60.467055  
1368.000000	60.408757  
1367.000000	60.201561  
1366.000000	60.197649  
1365.000000	60.729387  
1364.000000	61.793380  
1363.000000	63.032635  
1362.000000	64.100006  
1361.000000	64.966598  
1360.000000	65.742596  
1359.000000	66.384426  
1358.000000	66.753964  
1357.000000	66.846683  
1356.000000	66.818721  
1355.000000	66.813908  
1354.000000	66.871892  
1353.000000	66.996515  
1352.000000	67.201830  
1351.000000	67.470002  
1350.000000	67.744300  
1349.000000	67.992406  
1348.000000	68.219276  
1347.000000	68.407562  
1346.000000	68.506747  
1345.000000	68.493330  
1344.000000	68.388355  
1343.000000	68.205779  
1342.000000	67.935303  
1341.000000	67.590924  
1340.000000	67.233304  
1339.000000	66.921789  
1338.000000	66.679927  
1337.000000	66.524888  
1336.000000	66.483211  
1335.000000	66.559440  
1334.000000	66.731389  
1333.000000	66.988823  
1332.000000	67.340519  
1331.000000	67.776645  
1330.000000	68.264643  
1329.000000	68.790051  
1328.000000	69.360598  
1327.000000	69.965249  
1326.000000	70.572155  
1325.000000	71.173728  
1324.000000	71.791468  
1323.000000	72.432743  
1322.000000	73.085378  
1321.000000	73.756432  
1320.000000	74.470498  
1319.000000	75.221407  
1318.000000	75.968590  
1317.000000	76.691022  
1316.000000	77.404875  
1315.000000	78.122974  
1314.000000	78.835781  
1313.000000	79.535638  
1312.000000	80.223530  
1311.000000	80.887151  
1310.000000	81.504060  
1309.000000	82.069533  
1308.000000	82.595594  
1307.000000	83.086256  
1306.000000	83.538262  
1305.000000	83.959867  
1304.000000	84.361209  
1303.000000	84.733082  
1302.000000	85.060710  
1301.000000	85.349210  
1300.000000	85.611512  
1299.000000	85.844154  
1298.000000	86.040603  
1297.000000	86.213722  
1296.000000	86.377756  
1295.000000	86.522087  
1294.000000	86.630765  
1293.000000	86.713808  
1292.000000	86.791293  
1291.000000	86.861638  
1290.000000	86.914378  
1289.000000	86.959166  
1288.000000	87.010685  
1287.000000	87.057292  
1286.000000	87.076115  
1285.000000	87.067866  
1284.000000	87.046720  
1283.000000	87.009186  
1282.000000	86.945309  
1281.000000	86.869282  
1280.000000	86.803858  
1279.000000	86.738936  
1278.000000	86.637932  
1277.000000	86.483897  
1276.000000	86.292630  
1275.000000	86.083954  
1274.000000	85.866606  
1273.000000	85.647985  
1272.000000	85.431357  
1271.000000	85.202683  
1270.000000	84.943636  
1269.000000	84.658386  
1268.000000	84.368220  
1267.000000	84.083522  
1266.000000	83.801272  
1265.000000	83.524710  
1264.000000	83.262871  
1263.000000	83.013873  
1262.000000	82.770042  
1261.000000	82.536895  
1260.000000	82.327983  
1259.000000	82.146070  
1258.000000	81.989211  
1257.000000	81.866397  
1256.000000	81.783345  
1255.000000	81.720643  
1254.000000	81.650858  
1253.000000	81.568848  
1252.000000	81.477864  
1251.000000	81.356166  
1250.000000	81.171765  
1249.000000	80.924159  
1248.000000	80.633892  
1247.000000	80.289352  
1246.000000	79.838045  
1245.000000	79.236068  
1244.000000	78.478491  
1243.000000	77.579534  
1242.000000	76.554845  
1241.000000	75.431549  
1240.000000	74.246378  
1239.000000	73.018214  
1238.000000	71.742616  
1237.000000	70.426593  
1236.000000	69.108652  
1235.000000	67.831458  
1234.000000	66.618617  
1233.000000	65.498654  
1232.000000	64.529870  
1231.000000	63.776523  
1230.000000	63.277500  
1229.000000	63.057246  
1228.000000	63.138224  
1227.000000	63.513728  
1226.000000	64.135483  
1225.000000	64.941490  
1224.000000	65.821837  
1223.000000	66.490509  
1222.000000	66.468326  
1221.000000	65.362186  
1220.000000	63.267026  
1219.000000	60.883048  
1218.000000	59.152610  
1217.000000	58.685152  
1216.000000	59.443245  
1215.000000	60.879385  
1214.000000	62.337107  
1213.000000	63.396286  
1212.000000	63.958751  
1211.000000	64.124406  
1210.000000	64.043948  
1209.000000	63.854269  
1208.000000	63.671162  
1207.000000	63.585387  
1206.000000	63.658591  
1205.000000	63.930205  
1204.000000	64.417842  
1203.000000	65.106160  
1202.000000	65.957059  
1201.000000	66.943821  
1200.000000	68.058722  
1199.000000	69.283698  
1198.000000	70.580155  
1197.000000	71.914017  
1196.000000	73.262931  
1195.000000	74.593769  
1194.000000	75.864914  
1193.000000	77.060316  
1192.000000	78.194375  
1191.000000	79.275938  
1190.000000	80.291267  
1189.000000	81.225868  
1188.000000	82.078249  
1187.000000	82.848041  
1186.000000	83.532970  
1185.000000	84.141396  
1184.000000	84.690132  
1183.000000	85.189616  
1182.000000	85.645764  
1181.000000	86.070304  
1180.000000	86.470818  
1179.000000	86.836605  
1178.000000	87.154631  
1177.000000	87.435361  
1176.000000	87.704691  
1175.000000	87.975467  
1174.000000	88.243376  
1173.000000	88.503153  
1172.000000	88.749878  
1171.000000	88.971753  
1170.000000	89.162473  
1169.000000	89.335868  
1168.000000	89.510330  
1167.000000	89.684244  
1166.000000	89.842541  
1165.000000	89.979227  
1164.000000	90.096902  
1163.000000	90.194347  
1162.000000	90.273422  
1161.000000	90.348830  
1160.000000	90.432013  
1159.000000	90.513769  
1158.000000	90.580593  
1157.000000	90.638318  
1156.000000	90.700926  
1155.000000	90.766457  
1154.000000	90.823331  
1153.000000	90.870223  
1152.000000	90.910240  
1151.000000	90.936315  
1150.000000	90.942955  
1149.000000	90.942461  
1148.000000	90.948771  
1147.000000	90.953853  
1146.000000	90.939857  
1145.000000	90.905824  
1144.000000	90.862361  
1143.000000	90.808330  
1142.000000	90.732816  
1141.000000	90.632606  
1140.000000	90.508944  
1139.000000	90.355186  
1138.000000	90.166518  
1137.000000	89.953984  
1136.000000	89.730992  
1135.000000	89.495212  
1134.000000	89.243324  
1133.000000	88.994605  
1132.000000	88.777934  
1131.000000	88.601172  
1130.000000	88.454368  
1129.000000	88.337848  
1128.000000	88.262966  
1127.000000	88.225266  
1126.000000	88.199351  
1125.000000	88.164059  
1124.000000	88.116399  
1123.000000	88.060808  
1122.000000	88.000948  
1121.000000	87.940365  
1120.000000	87.874116  
1119.000000	87.780992  
1118.000000	87.641253  
1117.000000	87.462055  
1116.000000	87.270506  
1115.000000	87.082203  
1114.000000	86.888440  
1113.000000	86.669607  
1112.000000	86.405947  
1111.000000	86.078645  
1110.000000	85.676387  
1109.000000	85.199274  
1108.000000	84.642538  
1107.000000	83.979343  
1106.000000	83.171958  
1105.000000	82.195990  
1104.000000	81.042908  
1103.000000	79.707602  
1102.000000	78.190268  
1101.000000	76.506704  
1100.000000	74.678469  
1099.000000	72.712903  
1098.000000	70.609860  
1097.000000	68.397442  
1096.000000	66.147861  
1095.000000	63.946741  
1094.000000	61.862882  
1093.000000	59.966641  
1092.000000	58.355433  
1091.000000	57.118162  
1090.000000	56.276706  
1089.000000	55.799454  
1088.000000	55.668286  
1087.000000	55.894227  
1086.000000	56.472957  
1085.000000	57.364731  
1084.000000	58.515631  
1083.000000	59.863953  
1082.000000	61.328969  
1081.000000	62.823791  
1080.000000	64.281558  
1079.000000	65.657635  
1078.000000	66.918061  
1077.000000	68.038915  
1076.000000	69.006290  
1075.000000	69.808678  
1074.000000	70.440400  
1073.000000	70.914872  
1072.000000	71.257753  
1071.000000	71.480601  
1070.000000	71.573444  
1069.000000	71.526532  
1068.000000	71.344577  
1067.000000	71.033379  
1066.000000	70.585592  
1065.000000	69.988907  
1064.000000	69.241713  
1063.000000	68.356272  
1062.000000	67.354609  
1061.000000	66.267645  
1060.000000	65.132013  
1059.000000	63.978832  
1058.000000	62.825519  
1057.000000	61.679084  
1056.000000	60.537891  
1055.000000	59.384321  
1054.000000	58.190020  
1053.000000	56.945731  
1052.000000	55.679352  
1051.000000	54.426741  
1050.000000	53.192868  
1049.000000	51.964332  
1048.000000	50.747222  
1047.000000	49.564424  
1046.000000	48.430379  
1045.000000	47.355389  
1044.000000	46.358065  
1043.000000	45.445813  
1042.000000	44.596752  
1041.000000	43.788589  
1040.000000	43.032211  
1039.000000	42.346466  
1038.000000	41.712047  
1037.000000	41.084317  
1036.000000	40.443838  
1035.000000	39.802538  
1034.000000	39.168670  
1033.000000	38.539103  
1032.000000	37.921972  
1031.000000	37.337835  
1030.000000	36.803971  
1029.000000	36.344260  
1028.000000	36.005044  
1027.000000	35.832085  
1026.000000	35.841235  
1025.000000	36.039386  
1024.000000	36.459204  
1023.000000	37.140632  
1022.000000	38.091318  
1021.000000	39.293543  
1020.000000	40.729398  
1019.000000	42.366131  
1018.000000	44.137543  
1017.000000	45.973513  
1016.000000	47.831216  
1015.000000	49.674837  
1014.000000	51.451604  
1013.000000	53.117113  
1012.000000	54.666307  
1011.000000	56.119729  
1010.000000	57.498934  
1009.000000	58.830898  
1008.000000	60.153196  
1007.000000	61.495855  
1006.000000	62.874677  
1005.000000	64.310817  
1004.000000	65.829307  
1003.000000	67.421693  
1002.000000	69.033208  
1001.000000	70.602645  
1000.000000	72.096134  
999.000000	 73.495603  
998.000000	 74.782638  
997.000000	 75.947240  
996.000000	 76.990544  
995.000000	 77.907206  
994.000000	 78.682055  
993.000000	 79.310491  
992.000000	 79.804391  
991.000000	 80.172032  
990.000000	 80.406886  
989.000000	 80.497712  
988.000000	 80.432442  
987.000000	 80.190358  
986.000000	 79.750457  
985.000000	 79.117575  
984.000000	 78.333385  
983.000000	 77.464063  
982.000000	 76.592348  
981.000000	 75.824221  
980.000000	 75.284436  
979.000000	 75.085586  
978.000000	 75.294733  
977.000000	 75.920525  
976.000000	 76.908159  
975.000000	 78.136707  
974.000000	 79.448302  
973.000000	 80.708038  
972.000000	 81.838369  
971.000000	 82.805450  
970.000000	 83.599449  
969.000000	 84.232509  
968.000000	 84.729808  
967.000000	 85.106987  
966.000000	 85.363780  
965.000000	 85.500304  
964.000000	 85.525278  
963.000000	 85.445963  
962.000000	 85.264641  
961.000000	 84.990231  
960.000000	 84.644008  
959.000000	 84.252418  
958.000000	 83.844774  
957.000000	 83.460416  
956.000000	 83.147982  
955.000000	 82.952541  
954.000000	 82.907015  
953.000000	 83.031412  
952.000000	 83.324802  
951.000000	 83.753753  
950.000000	 84.261197  
949.000000	 84.790246  
948.000000	 85.288439  
947.000000	 85.693493  
946.000000	 85.938298  
945.000000	 85.975862  
944.000000	 85.782611  
943.000000	 85.333295  
942.000000	 84.588644  
941.000000	 83.515814  
940.000000	 82.117944  
939.000000	 80.452481  
938.000000	 78.641208  
937.000000	 76.871156  
936.000000	 75.370563  
935.000000	 74.353231  
934.000000	 73.958120  
933.000000	 74.220971  
932.000000	 75.076696  
931.000000	 76.373564  
930.000000	 77.911745  
929.000000	 79.507888  
928.000000	 81.035424  
927.000000	 82.413710  
926.000000	 83.588060  
925.000000	 84.534011  
924.000000	 85.262569  
923.000000	 85.805218  
922.000000	 86.196114  
921.000000	 86.466547  
920.000000	 86.641931  
919.000000	 86.736595  
918.000000	 86.756157  
917.000000	 86.704932  
916.000000	 86.584973  
915.000000	 86.391815  
914.000000	 86.122190  
913.000000	 85.784212  
912.000000	 85.387574  
911.000000	 84.922044  
910.000000	 84.355066  
909.000000	 83.651394  
908.000000	 82.786411  
907.000000	 81.742483  
906.000000	 80.507046  
905.000000	 79.080839  
904.000000	 77.481524  
903.000000	 75.735804  
902.000000	 73.874326  
901.000000	 71.939016  
900.000000	 69.988546  
899.000000	 68.086754  
898.000000	 66.287726  
897.000000	 64.640126  
896.000000	 63.195324  
895.000000	 61.987185  
894.000000	 61.000711  
893.000000	 60.178213  
892.000000	 59.458796  
891.000000	 58.802497  
890.000000	 58.191159  
889.000000	 57.634777  
888.000000	 57.177006  
887.000000	 56.871870  
886.000000	 56.752520  
885.000000	 56.837550  
884.000000	 57.158660  
883.000000	 57.754270  
882.000000	 58.634568  
881.000000	 59.771186  
880.000000	 61.114747  
879.000000	 62.603006  
878.000000	 64.161258  
877.000000	 65.712622  
876.000000	 67.178077  
875.000000	 68.462501  
874.000000	 69.470949  
873.000000	 70.155205  
872.000000	 70.523170  
871.000000	 70.597855  
870.000000	 70.396857  
869.000000	 69.959288  
868.000000	 69.358935  
867.000000	 68.670622  
866.000000	 67.943897  
865.000000	 67.226109  
864.000000	 66.589070  
863.000000	 66.106685  
862.000000	 65.817445  
861.000000	 65.730795  
860.000000	 65.856701  
859.000000	 66.203752  
858.000000	 66.761848  
857.000000	 67.515893  
856.000000	 68.466495  
855.000000	 69.607479  
854.000000	 70.888019  
853.000000	 72.221938  
852.000000	 73.533208  
851.000000	 74.780948  
850.000000	 75.953815  
849.000000	 77.058392  
848.000000	 78.103869  
847.000000	 79.080966  
846.000000	 79.960065  
845.000000	 80.719851  
844.000000	 81.371295  
843.000000	 81.946054  
842.000000	 82.467298  
841.000000	 82.934676  
840.000000	 83.328278  
839.000000	 83.624914  
838.000000	 83.823192  
837.000000	 83.958131  
836.000000	 84.080450  
835.000000	 84.215053  
834.000000	 84.346076  
833.000000	 84.444024  
832.000000	 84.496845  
831.000000	 84.512896  
830.000000	 84.509140  
829.000000	 84.503929  
828.000000	 84.508235  
827.000000	 84.514431  
826.000000	 84.504500  
825.000000	 84.475784  
824.000000	 84.442542  
823.000000	 84.407262  
822.000000	 84.355171  
821.000000	 84.282677  
820.000000	 84.202373  
819.000000	 84.114446  
818.000000	 84.001928  
817.000000	 83.865498  
816.000000	 83.741405  
815.000000	 83.667010  
814.000000	 83.637197  
813.000000	 83.608083  
812.000000	 83.537614  
811.000000	 83.414752  
810.000000	 83.261068  
809.000000	 83.116154  
808.000000	 83.011325  
807.000000	 82.941972  
806.000000	 82.868574  
805.000000	 82.753994  
804.000000	 82.595065  
803.000000	 82.414045  
802.000000	 82.233772  
801.000000	 82.072202  
800.000000	 81.945959  
799.000000	 81.858142  
798.000000	 81.785887  
797.000000	 81.695908  
796.000000	 81.573262  
795.000000	 81.428896  
794.000000	 81.286013  
793.000000	 81.166257  
792.000000	 81.078624  
791.000000	 81.009391  
790.000000	 80.929316  
789.000000	 80.820129  
788.000000	 80.685619  
787.000000	 80.529367  
786.000000	 80.336647  
785.000000	 80.093587  
784.000000	 79.812575  
783.000000	 79.521352  
782.000000	 79.234654  
781.000000	 78.951600  
780.000000	 78.671961  
779.000000	 78.397188  
778.000000	 78.122321  
777.000000	 77.845029  
776.000000	 77.576393  
775.000000	 77.324387  
774.000000	 77.071976  
773.000000	 76.790130  
772.000000	 76.468800  
771.000000	 76.119040  
770.000000	 75.752255  
769.000000	 75.377732  
768.000000	 75.014102  
767.000000	 74.678262  
766.000000	 74.362473  
765.000000	 74.043085  
764.000000	 73.712083  
763.000000	 73.382486  
762.000000	 73.066511  
761.000000	 72.769170  
760.000000	 72.500396  
759.000000	 72.270816  
758.000000	 72.076032  
757.000000	 71.904531  
756.000000	 71.756086  
755.000000	 71.629879  
754.000000	 71.504287  
753.000000	 71.362655  
752.000000	 71.236977  
751.000000	 71.186824  
750.000000	 71.223780  
749.000000	 71.288358  
748.000000	 71.316305  
747.000000	 71.299685  
746.000000	 71.264295  
745.000000	 71.214936  
744.000000	 71.134125  
743.000000	 71.022240  
742.000000	 70.907523  
741.000000	 70.811730  
740.000000	 70.722331  
739.000000	 70.605380  
738.000000	 70.440019  
737.000000	 70.235964  
736.000000	 70.017248  
735.000000	 69.792774  
734.000000	 69.550467  
733.000000	 69.280586  
732.000000	 68.989755  
731.000000	 68.682499  
730.000000	 68.345485  
729.000000	 67.968348  
728.000000	 67.565438  
727.000000	 67.156579  
726.000000	 66.740259  
725.000000	 66.308312  
724.000000	 65.875374  
723.000000	 65.467926  
722.000000	 65.093321  
721.000000	 64.745775  
720.000000	 64.437667  
719.000000	 64.196423  
718.000000	 64.030261  
717.000000	 63.926744  
716.000000	 63.880927  
715.000000	 63.893472  
714.000000	 63.944506  
713.000000	 63.999531  
712.000000	 64.044080  
711.000000	 64.090659  
710.000000	 64.151068  
709.000000	 64.223023  
708.000000	 64.302450  
707.000000	 64.385449  
706.000000	 64.457121  
705.000000	 64.497338  
704.000000	 64.500785  
703.000000	 64.478476  
702.000000	 64.439106  
701.000000	 64.385866  
700.000000	 64.331746  
699.000000	 64.295429  
698.000000	 64.279203  
697.000000	 64.264220  
696.000000	 64.228553  
695.000000	 64.162231  
694.000000	 64.067102  
693.000000	 63.958421  
692.000000	 63.861768  
691.000000	 63.787788  
690.000000	 63.719663  
689.000000	 63.642260  
688.000000	 63.570734  
687.000000	 63.524889  
686.000000	 63.487411  
685.000000	 63.426734  
684.000000	 63.346542  
683.000000	 63.271741  
682.000000	 63.205356  
681.000000	 63.138101  
680.000000	 63.086100  
679.000000	 63.072658  
678.000000	 63.080056  
677.000000	 63.066096  
676.000000	 63.016329  
675.000000	 62.956924  
674.000000	 62.917264  
673.000000	 62.897125  
672.000000	 62.861068  
671.000000	 62.725525  
670.000000	 62.386338  
669.000000	 61.756931  
668.000000	 61.086013  
667.000000	 60.996562  
666.000000	 61.386256  
665.000000	 61.739594  
664.000000	 61.909155  
663.000000	 61.957692  
662.000000	 61.951525  
661.000000	 61.902388  
660.000000	 61.828822  
659.000000	 61.765491  
658.000000	 61.737857  
657.000000	 61.665759  
656.000000	 61.576226  
655.000000	 61.357328  
654.000000	 61.710763  
653.000000	 61.624000  
652.000000	 61.413824  
651.000000	 61.339680  
650.000000	 61.297367  

