PE IR                   SPECTRUM    ASCII       PEDS        1.60        
  -1
125D~1.ASC
22/04/14
10:14:42.00
22/04/14
10:14:42.00
Admin

650.000000
4









SPECTRUM ONE,CPU32 MAIN 00.02.6000 25-JUNE-2003 12:00:00
MIR TGS
MIR
OPTKBR
68128
0.200000

4.000000
STRONG
RATIO
SPECTRUM
MAGNITUDE
UNIVERSAL ATR
DOUBLE

COMBINED


0


#HDR
-1
-1
#GR
CM-1
%T
0.00002384185791015625
0.0
4000.000000
-1.000000
3351
8
100.156843
46.561395
#DATA
4000.000000	99.721045  
3999.000000	99.753129  
3998.000000	99.785163  
3997.000000	99.827676  
3996.000000	99.858787  
3995.000000	99.862495  
3994.000000	99.841098  
3993.000000	99.811250  
3992.000000	99.788344  
3991.000000	99.774805  
3990.000000	99.762406  
3989.000000	99.744288  
3988.000000	99.723975  
3987.000000	99.713180  
3986.000000	99.720340  
3985.000000	99.741221  
3984.000000	99.762041  
3983.000000	99.773068  
3982.000000	99.777419  
3981.000000	99.784328  
3980.000000	99.796055  
3979.000000	99.805637  
3978.000000	99.808180  
3977.000000	99.810163  
3976.000000	99.824277  
3975.000000	99.855586  
3974.000000	99.895599  
3973.000000	99.930239  
3972.000000	99.951442  
3971.000000	99.959896  
3970.000000	99.959088  
3969.000000	99.950322  
3968.000000	99.934884  
3967.000000	99.918613  
3966.000000	99.910859  
3965.000000	99.917286  
3964.000000	99.934293  
3963.000000	99.951535  
3962.000000	99.959103  
3961.000000	99.952574  
3960.000000	99.933644  
3959.000000	99.908373  
3958.000000	99.885461  
3957.000000	99.872071  
3956.000000	99.869043  
3955.000000	99.871167  
3954.000000	99.873822  
3953.000000	99.878668  
3952.000000	99.890879  
3951.000000	99.911394  
3950.000000	99.931780  
3949.000000	99.938757  
3948.000000	99.926960  
3947.000000	99.907950  
3946.000000	99.901808  
3945.000000	99.917276  
3944.000000	99.941923  
3943.000000	99.954930  
3942.000000	99.949536  
3941.000000	99.935937  
3940.000000	99.922305  
3939.000000	99.903863  
3938.000000	99.875826  
3937.000000	99.846760  
3936.000000	99.832993  
3935.000000	99.841795  
3934.000000	99.864296  
3933.000000	99.885037  
3932.000000	99.894694  
3931.000000	99.894601  
3930.000000	99.891715  
3929.000000	99.892139  
3928.000000	99.898801  
3927.000000	99.908918  
3926.000000	99.913676  
3925.000000	99.906437  
3924.000000	99.893515  
3923.000000	99.889694  
3922.000000	99.901775  
3921.000000	99.925166  
3920.000000	99.954148  
3919.000000	99.983878  
3918.000000	100.004078 
3917.000000	100.003078 
3916.000000	99.982876  
3915.000000	99.961164  
3914.000000	99.954127  
3913.000000	99.962028  
3912.000000	99.974973  
3911.000000	99.983681  
3910.000000	99.986188  
3909.000000	99.983721  
3908.000000	99.975151  
3907.000000	99.955551  
3906.000000	99.922000  
3905.000000	99.883002  
3904.000000	99.862127  
3903.000000	99.887602  
3902.000000	99.965522  
3901.000000	100.063019 
3900.000000	100.128865 
3899.000000	100.136098 
3898.000000	100.097992 
3897.000000	100.043141 
3896.000000	99.992010  
3895.000000	99.958236  
3894.000000	99.953156  
3893.000000	99.969886  
3892.000000	99.978720  
3891.000000	99.958802  
3890.000000	99.934532  
3889.000000	99.944993  
3888.000000	99.993654  
3887.000000	100.047510 
3886.000000	100.067609 
3885.000000	100.048855 
3884.000000	100.030496 
3883.000000	100.040963 
3882.000000	100.065024 
3881.000000	100.072353 
3880.000000	100.051487 
3879.000000	100.024440 
3878.000000	100.021411 
3877.000000	100.042607 
3876.000000	100.065626 
3875.000000	100.070081 
3874.000000	100.058229 
3873.000000	100.059983 
3872.000000	100.093060 
3871.000000	100.127943 
3870.000000	100.122073 
3869.000000	100.085755 
3868.000000	100.074445 
3867.000000	100.105111 
3866.000000	100.142847 
3865.000000	100.156843 
3864.000000	100.141540 
3863.000000	100.105187 
3862.000000	100.059767 
3861.000000	100.014954 
3860.000000	99.980201  
3859.000000	99.956170  
3858.000000	99.938986  
3857.000000	99.935507  
3856.000000	99.967798  
3855.000000	100.043696 
3854.000000	100.110607 
3853.000000	100.106224 
3852.000000	100.078673 
3851.000000	100.091846 
3850.000000	100.108690 
3849.000000	100.085845 
3848.000000	100.031515 
3847.000000	99.969993  
3846.000000	99.918095  
3845.000000	99.882596  
3844.000000	99.862715  
3843.000000	99.852783  
3842.000000	99.854037  
3841.000000	99.872502  
3840.000000	99.908060  
3839.000000	99.950316  
3838.000000	99.988302  
3837.000000	100.020296 
3836.000000	100.049463 
3835.000000	100.070608 
3834.000000	100.072139 
3833.000000	100.049206 
3832.000000	100.009536 
3831.000000	99.972481  
3830.000000	99.957562  
3829.000000	99.965387  
3828.000000	99.973790  
3827.000000	99.956688  
3826.000000	99.916872  
3825.000000	99.892773  
3824.000000	99.919965  
3823.000000	99.988822  
3822.000000	100.041782 
3821.000000	100.025505 
3820.000000	99.972239  
3819.000000	99.956412  
3818.000000	99.981114  
3817.000000	100.003675 
3816.000000	100.005686 
3815.000000	100.006855 
3814.000000	100.030390 
3813.000000	100.052271 
3812.000000	100.034735 
3811.000000	99.991293  
3810.000000	99.966600  
3809.000000	99.973470  
3808.000000	99.970917  
3807.000000	99.916149  
3806.000000	99.836345  
3805.000000	99.802594  
3804.000000	99.838568  
3803.000000	99.905780  
3802.000000	99.949883  
3801.000000	99.949889  
3800.000000	99.948273  
3799.000000	99.971310  
3798.000000	99.978733  
3797.000000	99.944207  
3796.000000	99.896674  
3795.000000	99.881354  
3794.000000	99.909726  
3793.000000	99.952382  
3792.000000	99.975381  
3791.000000	99.967624  
3790.000000	99.935444  
3789.000000	99.892455  
3788.000000	99.857111  
3787.000000	99.846733  
3786.000000	99.864194  
3785.000000	99.895711  
3784.000000	99.929216  
3783.000000	99.967378  
3782.000000	100.013985 
3781.000000	100.054141 
3780.000000	100.059229 
3779.000000	100.016550 
3778.000000	99.952475  
3777.000000	99.905482  
3776.000000	99.885691  
3775.000000	99.877339  
3774.000000	99.867993  
3773.000000	99.859467  
3772.000000	99.855991  
3771.000000	99.853789  
3770.000000	99.850432  
3769.000000	99.857406  
3768.000000	99.886285  
3767.000000	99.923587  
3766.000000	99.943680  
3765.000000	99.942255  
3764.000000	99.939026  
3763.000000	99.944932  
3762.000000	99.942289  
3761.000000	99.911444  
3760.000000	99.864771  
3759.000000	99.834284  
3758.000000	99.835490  
3757.000000	99.854980  
3756.000000	99.870776  
3755.000000	99.869403  
3754.000000	99.851188  
3753.000000	99.836382  
3752.000000	99.853695  
3751.000000	99.901516  
3750.000000	99.943269  
3749.000000	99.960938  
3748.000000	99.971067  
3747.000000	99.990241  
3746.000000	100.014577 
3745.000000	100.018605 
3744.000000	99.984400  
3743.000000	99.957757  
3742.000000	99.970739  
3741.000000	99.973248  
3740.000000	99.938278  
3739.000000	99.902952  
3738.000000	99.904308  
3737.000000	99.934612  
3736.000000	99.962128  
3735.000000	99.983869  
3734.000000	100.024648 
3733.000000	100.083425 
3732.000000	100.125319 
3731.000000	100.132920 
3730.000000	100.119873 
3729.000000	100.099308 
3728.000000	100.071589 
3727.000000	100.039160 
3726.000000	100.016638 
3725.000000	100.021021 
3724.000000	100.046357 
3723.000000	100.062782 
3722.000000	100.046996 
3721.000000	100.001622 
3720.000000	99.945000  
3719.000000	99.887907  
3718.000000	99.827875  
3717.000000	99.762086  
3716.000000	99.701465  
3715.000000	99.668084  
3714.000000	99.684379  
3713.000000	99.754523  
3712.000000	99.842896  
3711.000000	99.896118  
3710.000000	99.897840  
3709.000000	99.871341  
3708.000000	99.842122  
3707.000000	99.824425  
3706.000000	99.824510  
3705.000000	99.838695  
3704.000000	99.851195  
3703.000000	99.842842  
3702.000000	99.809189  
3701.000000	99.770799  
3700.000000	99.755349  
3699.000000	99.763594  
3698.000000	99.767303  
3697.000000	99.746153  
3696.000000	99.714351  
3695.000000	99.701744  
3694.000000	99.714530  
3693.000000	99.728140  
3692.000000	99.716376  
3691.000000	99.675445  
3690.000000	99.622469  
3689.000000	99.579552  
3688.000000	99.565750  
3687.000000	99.585825  
3686.000000	99.614591  
3685.000000	99.616371  
3684.000000	99.584167  
3683.000000	99.543001  
3682.000000	99.512857  
3681.000000	99.480728  
3680.000000	99.423247  
3679.000000	99.358452  
3678.000000	99.346033  
3677.000000	99.418431  
3676.000000	99.510860  
3675.000000	99.528595  
3674.000000	99.488938  
3673.000000	99.454888  
3672.000000	99.431981  
3671.000000	99.408289  
3670.000000	99.373721  
3669.000000	99.327849  
3668.000000	99.289282  
3667.000000	99.253040  
3666.000000	99.200093  
3665.000000	99.137936  
3664.000000	99.091874  
3663.000000	99.077041  
3662.000000	99.085882  
3661.000000	99.097861  
3660.000000	99.097681  
3659.000000	99.080801  
3658.000000	99.042675  
3657.000000	98.976935  
3656.000000	98.891110  
3655.000000	98.819527  
3654.000000	98.790497  
3653.000000	98.792368  
3652.000000	98.793181  
3651.000000	98.769309  
3650.000000	98.712699  
3649.000000	98.637093  
3648.000000	98.572058  
3647.000000	98.532299  
3646.000000	98.508044  
3645.000000	98.482133  
3644.000000	98.441048  
3643.000000	98.378760  
3642.000000	98.302621  
3641.000000	98.231761  
3640.000000	98.183012  
3639.000000	98.158167  
3638.000000	98.149347  
3637.000000	98.149518  
3636.000000	98.145046  
3635.000000	98.110362  
3634.000000	98.029943  
3633.000000	97.926761  
3632.000000	97.849971  
3631.000000	97.831428  
3630.000000	97.849568  
3629.000000	97.837080  
3628.000000	97.772181  
3627.000000	97.710115  
3626.000000	97.674225  
3625.000000	97.637829  
3624.000000	97.588572  
3623.000000	97.531015  
3622.000000	97.464678  
3621.000000	97.381530  
3620.000000	97.281972  
3619.000000	97.187554  
3618.000000	97.129547  
3617.000000	97.117546  
3616.000000	97.123597  
3615.000000	97.105525  
3614.000000	97.039525  
3613.000000	96.935134  
3612.000000	96.825612  
3611.000000	96.739153  
3610.000000	96.677716  
3609.000000	96.622404  
3608.000000	96.554755  
3607.000000	96.473307  
3606.000000	96.386883  
3605.000000	96.296307  
3604.000000	96.196911  
3603.000000	96.093532  
3602.000000	96.001867  
3601.000000	95.933707  
3600.000000	95.883702  
3599.000000	95.833987  
3598.000000	95.770918  
3597.000000	95.697654  
3596.000000	95.624624  
3595.000000	95.550480  
3594.000000	95.463013  
3593.000000	95.361504  
3592.000000	95.263110  
3591.000000	95.187995  
3590.000000	95.140295  
3589.000000	95.099788  
3588.000000	95.035443  
3587.000000	94.940996  
3586.000000	94.846662  
3585.000000	94.778594  
3584.000000	94.730496  
3583.000000	94.683872  
3582.000000	94.630229  
3581.000000	94.569016  
3580.000000	94.493748  
3579.000000	94.389876  
3578.000000	94.250781  
3577.000000	94.093379  
3576.000000	93.948220  
3575.000000	93.831050  
3574.000000	93.730576  
3573.000000	93.627480  
3572.000000	93.518944  
3571.000000	93.419082  
3570.000000	93.339727  
3569.000000	93.272728  
3568.000000	93.192881  
3567.000000	93.083470  
3566.000000	92.958389  
3565.000000	92.844748  
3564.000000	92.749599  
3563.000000	92.659248  
3562.000000	92.561390  
3561.000000	92.460063  
3560.000000	92.372909  
3559.000000	92.310705  
3558.000000	92.259242  
3557.000000	92.188171  
3556.000000	92.079771  
3555.000000	91.942547  
3554.000000	91.794404  
3553.000000	91.641977  
3552.000000	91.486019  
3551.000000	91.339595  
3550.000000	91.223278  
3549.000000	91.139845  
3548.000000	91.063871  
3547.000000	90.962719  
3546.000000	90.829112  
3545.000000	90.688951  
3544.000000	90.574592  
3543.000000	90.495139  
3542.000000	90.433085  
3541.000000	90.361475  
3540.000000	90.262050  
3539.000000	90.132983  
3538.000000	89.986697  
3537.000000	89.841612  
3536.000000	89.711129  
3535.000000	89.597066  
3534.000000	89.491543  
3533.000000	89.385895  
3532.000000	89.276621  
3531.000000	89.163540  
3530.000000	89.044633  
3529.000000	88.918182  
3528.000000	88.790802  
3527.000000	88.677469  
3526.000000	88.586534  
3525.000000	88.505092  
3524.000000	88.405390  
3523.000000	88.268902  
3522.000000	88.101709  
3521.000000	87.924653  
3520.000000	87.753061  
3519.000000	87.590938  
3518.000000	87.440242  
3517.000000	87.306800  
3516.000000	87.192510  
3515.000000	87.086395  
3514.000000	86.970022  
3513.000000	86.833341  
3512.000000	86.682806  
3511.000000	86.535008  
3510.000000	86.404062  
3509.000000	86.293809  
3508.000000	86.196457  
3507.000000	86.094573  
3506.000000	85.966577  
3505.000000	85.799555  
3504.000000	85.603618  
3503.000000	85.412303  
3502.000000	85.261516  
3501.000000	85.162138  
3500.000000	85.091912  
3499.000000	85.012338  
3498.000000	84.894392  
3497.000000	84.735350  
3496.000000	84.557112  
3495.000000	84.388774  
3494.000000	84.245904  
3493.000000	84.121794  
3492.000000	83.996729  
3491.000000	83.856602  
3490.000000	83.704135  
3489.000000	83.552600  
3488.000000	83.410645  
3487.000000	83.274445  
3486.000000	83.132416  
3485.000000	82.974060  
3484.000000	82.796243  
3483.000000	82.606966  
3482.000000	82.423823  
3481.000000	82.263640  
3480.000000	82.129349  
3479.000000	82.008152  
3478.000000	81.883500  
3477.000000	81.746766  
3476.000000	81.598275  
3475.000000	81.442192  
3474.000000	81.283692  
3473.000000	81.127647  
3472.000000	80.975813  
3471.000000	80.826082  
3470.000000	80.676282  
3469.000000	80.526490  
3468.000000	80.376359  
3467.000000	80.223823  
3466.000000	80.069463  
3465.000000	79.919046  
3464.000000	79.778860  
3463.000000	79.651464  
3462.000000	79.538089  
3461.000000	79.439514  
3460.000000	79.348520  
3459.000000	79.245886  
3458.000000	79.112906  
3457.000000	78.949493  
3456.000000	78.775995  
3455.000000	78.617544  
3454.000000	78.488697  
3453.000000	78.388258  
3452.000000	78.299911  
3451.000000	78.199388  
3450.000000	78.071083  
3449.000000	77.922859  
3448.000000	77.779643  
3447.000000	77.657549  
3446.000000	77.549050  
3445.000000	77.437635  
3444.000000	77.319759  
3443.000000	77.206024  
3442.000000	77.103979  
3441.000000	77.007694  
3440.000000	76.905694  
3439.000000	76.793953  
3438.000000	76.678436  
3437.000000	76.566859  
3436.000000	76.460120  
3435.000000	76.352393  
3434.000000	76.239571  
3433.000000	76.127596  
3432.000000	76.030211  
3431.000000	75.955911  
3430.000000	75.896320  
3429.000000	75.829269  
3428.000000	75.735315  
3427.000000	75.612299  
3426.000000	75.475333  
3425.000000	75.344061  
3424.000000	75.228835  
3423.000000	75.126440  
3422.000000	75.027201  
3421.000000	74.926236  
3420.000000	74.828176  
3419.000000	74.740668  
3418.000000	74.663530  
3417.000000	74.585683  
3416.000000	74.493805  
3415.000000	74.384136  
3414.000000	74.264244  
3413.000000	74.142017  
3412.000000	74.015527  
3411.000000	73.877916  
3410.000000	73.731686  
3409.000000	73.592170  
3408.000000	73.473278  
3407.000000	73.373259  
3406.000000	73.278537  
3405.000000	73.178548  
3404.000000	73.071920  
3403.000000	72.960380  
3402.000000	72.844281  
3401.000000	72.726333  
3400.000000	72.614031  
3399.000000	72.514162  
3398.000000	72.425553  
3397.000000	72.338192  
3396.000000	72.238563  
3395.000000	72.117865  
3394.000000	71.980778  
3393.000000	71.848317  
3392.000000	71.747223  
3391.000000	71.690739  
3390.000000	71.668066  
3389.000000	71.651105  
3388.000000	71.610731  
3387.000000	71.530961  
3386.000000	71.416161  
3385.000000	71.288624  
3384.000000	71.174536  
3383.000000	71.086275  
3382.000000	71.016410  
3381.000000	70.949340  
3380.000000	70.877336  
3379.000000	70.803924  
3378.000000	70.732811  
3377.000000	70.657700  
3376.000000	70.567329  
3375.000000	70.461889  
3374.000000	70.360465  
3373.000000	70.285445  
3372.000000	70.237084  
3371.000000	70.188901  
3370.000000	70.113155  
3369.000000	70.008269  
3368.000000	69.896939  
3367.000000	69.800698  
3366.000000	69.723462  
3365.000000	69.658455  
3364.000000	69.601489  
3363.000000	69.552266  
3362.000000	69.507919  
3361.000000	69.461275  
3360.000000	69.405485  
3359.000000	69.339053  
3358.000000	69.267944  
3357.000000	69.203297  
3356.000000	69.153612  
3355.000000	69.115830  
3354.000000	69.075314  
3353.000000	69.017528  
3352.000000	68.941228  
3351.000000	68.861026  
3350.000000	68.796823  
3349.000000	68.758323  
3348.000000	68.737321  
3347.000000	68.716138  
3346.000000	68.685929  
3345.000000	68.655286  
3344.000000	68.637857  
3343.000000	68.632991  
3342.000000	68.623729  
3341.000000	68.594480  
3340.000000	68.546207  
3339.000000	68.493161  
3338.000000	68.449250  
3337.000000	68.419504  
3336.000000	68.399761  
3335.000000	68.380458  
3334.000000	68.353634  
3333.000000	68.321253  
3332.000000	68.296624  
3331.000000	68.293303  
3330.000000	68.310071  
3329.000000	68.328079  
3328.000000	68.325046  
3327.000000	68.293267  
3326.000000	68.242959  
3325.000000	68.188528  
3324.000000	68.135618  
3323.000000	68.085799  
3322.000000	68.050851  
3321.000000	68.050981  
3320.000000	68.091145  
3319.000000	68.144283  
3318.000000	68.168848  
3317.000000	68.145111  
3316.000000	68.089088  
3315.000000	68.031863  
3314.000000	67.993612  
3313.000000	67.979819  
3312.000000	67.991123  
3311.000000	68.024981  
3310.000000	68.069189  
3309.000000	68.104206  
3308.000000	68.117981  
3307.000000	68.116511  
3306.000000	68.116887  
3305.000000	68.130670  
3304.000000	68.155496  
3303.000000	68.181292  
3302.000000	68.201279  
3301.000000	68.215435  
3300.000000	68.225745  
3299.000000	68.232308  
3298.000000	68.234408  
3297.000000	68.231728  
3296.000000	68.223197  
3295.000000	68.208684  
3294.000000	68.194934  
3293.000000	68.196341  
3292.000000	68.224699  
3291.000000	68.278031  
3290.000000	68.341490  
3289.000000	68.397129  
3288.000000	68.431368  
3287.000000	68.439364  
3286.000000	68.429995  
3285.000000	68.424774  
3284.000000	68.443098  
3283.000000	68.485613  
3282.000000	68.536078  
3281.000000	68.579654  
3280.000000	68.614004  
3279.000000	68.642899  
3278.000000	68.667643  
3277.000000	68.688801  
3276.000000	68.710119  
3275.000000	68.735289  
3274.000000	68.764246  
3273.000000	68.797019  
3272.000000	68.837584  
3271.000000	68.888624  
3270.000000	68.944408  
3269.000000	68.994283  
3268.000000	69.033499  
3267.000000	69.066906  
3266.000000	69.101328  
3265.000000	69.137367  
3264.000000	69.170453  
3263.000000	69.198828  
3262.000000	69.229064  
3261.000000	69.272806  
3260.000000	69.337421  
3259.000000	69.419571  
3258.000000	69.507449  
3257.000000	69.587916  
3256.000000	69.651876  
3255.000000	69.697440  
3254.000000	69.732888  
3253.000000	69.775066  
3252.000000	69.838088  
3251.000000	69.919933  
3250.000000	70.002750  
3249.000000	70.069823  
3248.000000	70.122475  
3247.000000	70.179893  
3246.000000	70.262792  
3245.000000	70.376195  
3244.000000	70.505242  
3243.000000	70.626453  
3242.000000	70.724578  
3241.000000	70.800706  
3240.000000	70.866002  
3239.000000	70.930154  
3238.000000	70.997226  
3237.000000	71.069019  
3236.000000	71.146556  
3235.000000	71.227233  
3234.000000	71.304592  
3233.000000	71.373572  
3232.000000	71.435651  
3231.000000	71.499989  
3230.000000	71.581568  
3229.000000	71.695008  
3228.000000	71.842605  
3227.000000	72.005801  
3226.000000	72.154037  
3225.000000	72.267634  
3224.000000	72.352084  
3223.000000	72.429219  
3222.000000	72.517259  
3221.000000	72.620542  
3220.000000	72.733082  
3219.000000	72.845800  
3218.000000	72.951003  
3217.000000	73.046293  
3216.000000	73.139292  
3215.000000	73.247727  
3214.000000	73.389273  
3213.000000	73.565438  
3212.000000	73.754287  
3211.000000	73.923598  
3210.000000	74.056622  
3209.000000	74.165304  
3208.000000	74.274856  
3207.000000	74.395290  
3206.000000	74.511492  
3205.000000	74.601932  
3204.000000	74.664390  
3203.000000	74.722104  
3202.000000	74.806476  
3201.000000	74.933577  
3200.000000	75.093346  
3199.000000	75.258371  
3198.000000	75.404342  
3197.000000	75.525011  
3196.000000	75.631040  
3195.000000	75.739055  
3194.000000	75.863288  
3193.000000	76.011447  
3192.000000	76.179930  
3191.000000	76.352461  
3190.000000	76.510455  
3189.000000	76.648896  
3188.000000	76.779535  
3187.000000	76.916798  
3186.000000	77.063274  
3185.000000	77.210225  
3184.000000	77.349062  
3183.000000	77.479949  
3182.000000	77.610846  
3181.000000	77.749341  
3180.000000	77.894155  
3179.000000	78.035131  
3178.000000	78.164788  
3177.000000	78.289528  
3176.000000	78.424201  
3175.000000	78.574221  
3174.000000	78.727991  
3173.000000	78.869855  
3172.000000	78.996818  
3171.000000	79.119246  
3170.000000	79.248387  
3169.000000	79.387471  
3168.000000	79.532699  
3167.000000	79.677809  
3166.000000	79.817031  
3165.000000	79.946795  
3164.000000	80.066971  
3163.000000	80.181514  
3162.000000	80.298949  
3161.000000	80.430622  
3160.000000	80.583635  
3159.000000	80.752380  
3158.000000	80.919165  
3157.000000	81.067366  
3156.000000	81.195423  
3155.000000	81.317732  
3154.000000	81.451876  
3153.000000	81.603308  
3152.000000	81.759378  
3151.000000	81.898565  
3150.000000	82.009737  
3149.000000	82.103858  
3148.000000	82.203464  
3147.000000	82.319339  
3146.000000	82.441550  
3145.000000	82.555453  
3144.000000	82.661371  
3143.000000	82.773448  
3142.000000	82.901528  
3141.000000	83.039539  
3140.000000	83.171943  
3139.000000	83.289233  
3138.000000	83.397997  
3137.000000	83.517311  
3136.000000	83.662648  
3135.000000	83.830051  
3134.000000	83.996981  
3133.000000	84.140496  
3132.000000	84.253076  
3131.000000	84.341028  
3130.000000	84.414785  
3129.000000	84.486403  
3128.000000	84.570537  
3127.000000	84.677154  
3126.000000	84.801535  
3125.000000	84.927304  
3124.000000	85.040953  
3123.000000	85.139875  
3122.000000	85.227431  
3121.000000	85.307420  
3120.000000	85.385781  
3119.000000	85.471140  
3118.000000	85.567975  
3117.000000	85.670475  
3116.000000	85.766042  
3115.000000	85.844814  
3114.000000	85.905929  
3113.000000	85.957430  
3112.000000	86.011740  
3111.000000	86.078871  
3110.000000	86.161290  
3109.000000	86.254996  
3108.000000	86.354871  
3107.000000	86.456901  
3106.000000	86.555374  
3105.000000	86.641670  
3104.000000	86.708832  
3103.000000	86.757163  
3102.000000	86.795321  
3101.000000	86.836761  
3100.000000	86.892519  
3099.000000	86.962274  
3098.000000	87.032157  
3097.000000	87.086701  
3096.000000	87.125917  
3095.000000	87.167020  
3094.000000	87.226153  
3093.000000	87.301692  
3092.000000	87.378916  
3091.000000	87.447288  
3090.000000	87.507720  
3089.000000	87.564262  
3088.000000	87.615153  
3087.000000	87.655167  
3086.000000	87.683963  
3085.000000	87.709242  
3084.000000	87.741828  
3083.000000	87.787994  
3082.000000	87.845272  
3081.000000	87.904855  
3080.000000	87.959634  
3079.000000	88.011742  
3078.000000	88.071747  
3077.000000	88.148248  
3076.000000	88.236788  
3075.000000	88.320021  
3074.000000	88.381189  
3073.000000	88.419032  
3072.000000	88.449409  
3071.000000	88.491194  
3070.000000	88.549896  
3069.000000	88.614396  
3068.000000	88.668148  
3067.000000	88.703069  
3066.000000	88.724302  
3065.000000	88.744164  
3064.000000	88.772152  
3063.000000	88.808907  
3062.000000	88.848244  
3061.000000	88.884764  
3060.000000	88.919145  
3059.000000	88.955477  
3058.000000	88.994418  
3057.000000	89.031417  
3056.000000	89.061959  
3055.000000	89.085054  
3054.000000	89.098379  
3053.000000	89.092604  
3052.000000	89.057436  
3051.000000	88.997094  
3050.000000	88.935794  
3049.000000	88.900985  
3048.000000	88.899366  
3047.000000	88.912346  
3046.000000	88.915120  
3045.000000	88.894600  
3044.000000	88.847349  
3043.000000	88.769284  
3042.000000	88.657709  
3041.000000	88.521550  
3040.000000	88.379326  
3039.000000	88.243262  
3038.000000	88.110525  
3037.000000	87.971900  
3036.000000	87.823472  
3035.000000	87.668026  
3034.000000	87.512455  
3033.000000	87.369311  
3032.000000	87.255666  
3031.000000	87.183420  
3030.000000	87.151834  
3029.000000	87.152393  
3028.000000	87.177064  
3027.000000	87.217855  
3026.000000	87.264194  
3025.000000	87.309385  
3024.000000	87.357653  
3023.000000	87.415559  
3022.000000	87.474588  
3021.000000	87.509834  
3020.000000	87.500741  
3019.000000	87.451603  
3018.000000	87.390713  
3017.000000	87.351771  
3016.000000	87.355587  
3015.000000	87.403783  
3014.000000	87.484421  
3013.000000	87.580907  
3012.000000	87.675865  
3011.000000	87.750962  
3010.000000	87.791773  
3009.000000	87.798990  
3008.000000	87.791729  
3007.000000	87.793665  
3006.000000	87.814970  
3005.000000	87.850693  
3004.000000	87.895001  
3003.000000	87.951549  
3002.000000	88.029259  
3001.000000	88.131565  
3000.000000	88.249737  
2999.000000	88.363899  
2998.000000	88.453023  
2997.000000	88.510561  
2996.000000	88.551068  
2995.000000	88.596572  
2994.000000	88.654854  
2993.000000	88.714320  
2992.000000	88.759120  
2991.000000	88.783626  
2990.000000	88.791710  
2989.000000	88.788932  
2988.000000	88.779730  
2987.000000	88.768224  
2986.000000	88.756606  
2985.000000	88.741978  
2984.000000	88.715844  
2983.000000	88.667397  
2982.000000	88.588652  
2981.000000	88.476139  
2980.000000	88.324831  
2979.000000	88.120983  
2978.000000	87.845716  
2977.000000	87.481192  
2976.000000	86.996076  
2975.000000	86.324946  
2974.000000	85.406180  
2973.000000	84.295097  
2972.000000	83.239215  
2971.000000	82.577265  
2970.000000	82.500901  
2969.000000	82.900819  
2968.000000	83.457941  
2967.000000	83.883801  
2966.000000	84.076896  
2965.000000	84.084588  
2964.000000	83.980320  
2963.000000	83.799407  
2962.000000	83.553362  
2961.000000	83.258034  
2960.000000	82.937931  
2959.000000	82.619499  
2958.000000	82.324910  
2957.000000	82.064328  
2956.000000	81.831158  
2955.000000	81.609745  
2954.000000	81.389773  
2953.000000	81.172435  
2952.000000	80.966082  
2951.000000	80.780695  
2950.000000	80.624702  
2949.000000	80.501321  
2948.000000	80.406201  
2947.000000	80.330673  
2946.000000	80.267335  
2945.000000	80.210792  
2944.000000	80.154652  
2943.000000	80.092523  
2942.000000	80.024682  
2941.000000	79.962743  
2940.000000	79.925043  
2939.000000	79.924145  
2938.000000	79.955268  
2937.000000	79.995138  
2936.000000	80.013709  
2935.000000	79.991762  
2934.000000	79.933019  
2933.000000	79.862825  
2932.000000	79.813483  
2931.000000	79.804229  
2930.000000	79.831273  
2929.000000	79.878552  
2928.000000	79.940532  
2927.000000	80.031465  
2926.000000	80.168941  
2925.000000	80.352641  
2924.000000	80.565882  
2923.000000	80.795772  
2922.000000	81.043672  
2921.000000	81.315210  
2920.000000	81.608150  
2919.000000	81.913798  
2918.000000	82.224540  
2917.000000	82.535134  
2916.000000	82.839585  
2915.000000	83.131632  
2914.000000	83.408903  
2913.000000	83.675122  
2912.000000	83.937610  
2911.000000	84.201034  
2910.000000	84.460993  
2909.000000	84.703442  
2908.000000	84.912903  
2907.000000	85.083077  
2906.000000	85.220317  
2905.000000	85.339090  
2904.000000	85.455262  
2903.000000	85.578734  
2902.000000	85.705461  
2901.000000	85.816586  
2900.000000	85.892560  
2899.000000	85.932104  
2898.000000	85.953225  
2897.000000	85.973065  
2896.000000	85.989507  
2895.000000	85.985334  
2894.000000	85.947241  
2893.000000	85.877274  
2892.000000	85.787647  
2891.000000	85.688908  
2890.000000	85.584421  
2889.000000	85.474973  
2888.000000	85.366798  
2887.000000	85.272251  
2886.000000	85.199401  
2885.000000	85.141677  
2884.000000	85.082177  
2883.000000	85.009670  
2882.000000	84.927428  
2881.000000	84.845664  
2880.000000	84.770880  
2879.000000	84.705817  
2878.000000	84.654496  
2877.000000	84.620819  
2876.000000	84.603759  
2875.000000	84.599515  
2874.000000	84.608434  
2873.000000	84.635755  
2872.000000	84.685008  
2871.000000	84.753344  
2870.000000	84.833142  
2869.000000	84.915856  
2868.000000	84.995701  
2867.000000	85.073173  
2866.000000	85.153983  
2865.000000	85.240134  
2864.000000	85.322217  
2863.000000	85.385243  
2862.000000	85.422970  
2861.000000	85.442273  
2860.000000	85.453193  
2859.000000	85.462285  
2858.000000	85.480421  
2857.000000	85.531375  
2856.000000	85.642779  
2855.000000	85.825228  
2854.000000	86.062849  
2853.000000	86.327273  
2852.000000	86.600444  
2851.000000	86.881984  
2850.000000	87.174763  
2849.000000	87.467514  
2848.000000	87.737066  
2847.000000	87.969200  
2846.000000	88.173306  
2845.000000	88.372783  
2844.000000	88.582646  
2843.000000	88.798857  
2842.000000	89.007292  
2841.000000	89.198047  
2840.000000	89.370381  
2839.000000	89.528708  
2838.000000	89.677948  
2837.000000	89.822507  
2836.000000	89.967368  
2835.000000	90.118131  
2834.000000	90.277184  
2833.000000	90.437629  
2832.000000	90.583342  
2831.000000	90.700522  
2830.000000	90.791174  
2829.000000	90.872236  
2828.000000	90.960209  
2827.000000	91.059365  
2826.000000	91.164732  
2825.000000	91.270531  
2824.000000	91.372015  
2823.000000	91.464523  
2822.000000	91.547898  
2821.000000	91.630734  
2820.000000	91.723659  
2819.000000	91.826723  
2818.000000	91.927175  
2817.000000	92.011521  
2816.000000	92.078195  
2815.000000	92.138563  
2814.000000	92.208058  
2813.000000	92.295772  
2812.000000	92.398459  
2811.000000	92.502134  
2810.000000	92.590674  
2809.000000	92.654338  
2808.000000	92.692235  
2807.000000	92.711513  
2806.000000	92.728056  
2805.000000	92.763136  
2804.000000	92.829506  
2803.000000	92.918283  
2802.000000	93.005959  
2801.000000	93.078120  
2800.000000	93.141461  
2799.000000	93.208738  
2798.000000	93.278103  
2797.000000	93.334886  
2796.000000	93.371890  
2795.000000	93.399948  
2794.000000	93.436109  
2793.000000	93.485741  
2792.000000	93.538532  
2791.000000	93.579498  
2790.000000	93.602026  
2789.000000	93.612640  
2788.000000	93.625978  
2787.000000	93.654673  
2786.000000	93.701335  
2785.000000	93.758405  
2784.000000	93.815651  
2783.000000	93.868660  
2782.000000	93.920692  
2781.000000	93.976279  
2780.000000	94.033658  
2779.000000	94.085264  
2778.000000	94.126417  
2777.000000	94.161302  
2776.000000	94.197934  
2775.000000	94.238707  
2774.000000	94.279401  
2773.000000	94.316715  
2772.000000	94.351971  
2771.000000	94.385747  
2770.000000	94.413176  
2769.000000	94.428674  
2768.000000	94.434259  
2767.000000	94.440452  
2766.000000	94.458303  
2765.000000	94.490684  
2764.000000	94.530510  
2763.000000	94.567324  
2762.000000	94.596581  
2761.000000	94.622022  
2760.000000	94.648521  
2759.000000	94.675667  
2758.000000	94.701750  
2757.000000	94.730138  
2756.000000	94.764049  
2755.000000	94.796424  
2754.000000	94.815452  
2753.000000	94.823809  
2752.000000	94.842323  
2751.000000	94.886410  
2750.000000	94.944810  
2749.000000	94.990199  
2748.000000	95.007575  
2747.000000	95.004162  
2746.000000	94.995150  
2745.000000	94.989993  
2744.000000	94.992565  
2743.000000	95.004337  
2742.000000	95.023200  
2741.000000	95.045139  
2740.000000	95.069661  
2739.000000	95.098454  
2738.000000	95.127239  
2737.000000	95.146101  
2736.000000	95.152033  
2735.000000	95.155047  
2734.000000	95.165563  
2733.000000	95.179139  
2732.000000	95.180786  
2731.000000	95.164132  
2730.000000	95.140565  
2729.000000	95.127598  
2728.000000	95.132393  
2727.000000	95.149759  
2726.000000	95.173031  
2725.000000	95.201083  
2724.000000	95.233163  
2723.000000	95.261990  
2722.000000	95.278145  
2721.000000	95.281810  
2720.000000	95.285621  
2719.000000	95.303500  
2718.000000	95.338440  
2717.000000	95.381430  
2716.000000	95.418640  
2715.000000	95.438694  
2714.000000	95.438614  
2713.000000	95.427733  
2712.000000	95.422750  
2711.000000	95.433917  
2710.000000	95.457425  
2709.000000	95.484647  
2708.000000	95.515515  
2707.000000	95.556770  
2706.000000	95.608533  
2705.000000	95.659754  
2704.000000	95.698141  
2703.000000	95.719490  
2702.000000	95.726311  
2701.000000	95.722712  
2700.000000	95.713443  
2699.000000	95.704570  
2698.000000	95.702341  
2697.000000	95.711965  
2696.000000	95.736070  
2695.000000	95.770423  
2694.000000	95.801748  
2693.000000	95.815976  
2692.000000	95.812646  
2691.000000	95.808696  
2690.000000	95.824761  
2689.000000	95.867189  
2688.000000	95.922742  
2687.000000	95.968718  
2686.000000	95.989239  
2685.000000	95.986231  
2684.000000	95.977105  
2683.000000	95.980393  
2682.000000	96.001760  
2681.000000	96.032920  
2680.000000	96.061349  
2679.000000	96.078723  
2678.000000	96.082789  
2677.000000	96.077065  
2676.000000	96.070131  
2675.000000	96.071230  
2674.000000	96.084016  
2673.000000	96.104670  
2672.000000	96.124699  
2671.000000	96.134075  
2670.000000	96.125643  
2669.000000	96.102950  
2668.000000	96.082565  
2667.000000	96.081437  
2666.000000	96.100154  
2665.000000	96.124083  
2664.000000	96.142484  
2663.000000	96.159829  
2662.000000	96.184964  
2661.000000	96.215668  
2660.000000	96.240491  
2659.000000	96.252734  
2658.000000	96.256374  
2657.000000	96.258772  
2656.000000	96.262240  
2655.000000	96.263391  
2654.000000	96.258020  
2653.000000	96.246295  
2652.000000	96.234480  
2651.000000	96.230644  
2650.000000	96.237160  
2649.000000	96.248709  
2648.000000	96.259016  
2647.000000	96.267193  
2646.000000	96.275109  
2645.000000	96.281428  
2644.000000	96.283230  
2643.000000	96.282817  
2642.000000	96.286994  
2641.000000	96.296888  
2640.000000	96.302881  
2639.000000	96.295491  
2638.000000	96.280965  
2637.000000	96.280296  
2636.000000	96.308742  
2635.000000	96.358576  
2634.000000	96.405688  
2633.000000	96.431378  
2632.000000	96.433394  
2631.000000	96.418277  
2630.000000	96.392895  
2629.000000	96.367309  
2628.000000	96.357227  
2627.000000	96.374444  
2626.000000	96.416215  
2625.000000	96.468183  
2624.000000	96.514174  
2623.000000	96.539612  
2622.000000	96.533716  
2621.000000	96.500155  
2620.000000	96.463464  
2619.000000	96.453086  
2618.000000	96.477525  
2617.000000	96.519226  
2616.000000	96.553759  
2615.000000	96.566965  
2614.000000	96.556232  
2613.000000	96.528463  
2612.000000	96.501718  
2611.000000	96.499285  
2610.000000	96.533755  
2609.000000	96.597812  
2608.000000	96.670713  
2607.000000	96.729304  
2606.000000	96.755417  
2605.000000	96.744355  
2604.000000	96.710981  
2603.000000	96.679631  
2602.000000	96.662984  
2601.000000	96.655155  
2600.000000	96.645723  
2599.000000	96.631426  
2598.000000	96.612024  
2597.000000	96.586853  
2596.000000	96.563262  
2595.000000	96.559009  
2594.000000	96.585344  
2593.000000	96.631078  
2592.000000	96.670979  
2591.000000	96.687706  
2590.000000	96.681459  
2589.000000	96.663885  
2588.000000	96.648889  
2587.000000	96.644291  
2586.000000	96.644907  
2585.000000	96.636860  
2584.000000	96.614986  
2583.000000	96.592321  
2582.000000	96.585735  
2581.000000	96.595909  
2580.000000	96.609386  
2579.000000	96.617800  
2578.000000	96.625749  
2577.000000	96.639237  
2576.000000	96.655101  
2575.000000	96.666011  
2574.000000	96.671285  
2573.000000	96.678715  
2572.000000	96.696929  
2571.000000	96.727520  
2570.000000	96.763577  
2569.000000	96.794667  
2568.000000	96.813449  
2567.000000	96.818264  
2566.000000	96.811356  
2565.000000	96.797121  
2564.000000	96.781407  
2563.000000	96.768916  
2562.000000	96.760468  
2561.000000	96.755756  
2560.000000	96.758640  
2559.000000	96.774342  
2558.000000	96.798795  
2557.000000	96.815933  
2556.000000	96.811524  
2555.000000	96.788909  
2554.000000	96.766822  
2553.000000	96.761480  
2552.000000	96.773913  
2551.000000	96.794869  
2550.000000	96.817193  
2549.000000	96.838832  
2548.000000	96.855988  
2547.000000	96.861648  
2546.000000	96.855982  
2545.000000	96.852486  
2544.000000	96.864307  
2543.000000	96.885672  
2542.000000	96.897631  
2541.000000	96.894257  
2540.000000	96.890895  
2539.000000	96.899706  
2538.000000	96.909252  
2537.000000	96.901062  
2536.000000	96.879043  
2535.000000	96.867413  
2534.000000	96.881358  
2533.000000	96.913395  
2532.000000	96.949995  
2531.000000	96.988978  
2530.000000	97.034536  
2529.000000	97.082431  
2528.000000	97.117293  
2527.000000	97.125787  
2526.000000	97.113191  
2525.000000	97.105114  
2524.000000	97.124559  
2523.000000	97.163903  
2522.000000	97.189300  
2521.000000	97.179904  
2520.000000	97.151744  
2519.000000	97.132030  
2518.000000	97.122596  
2517.000000	97.105918  
2516.000000	97.077371  
2515.000000	97.049664  
2514.000000	97.029971  
2513.000000	97.016066  
2512.000000	97.014355  
2511.000000	97.036975  
2510.000000	97.076572  
2509.000000	97.107449  
2508.000000	97.120285  
2507.000000	97.133886  
2506.000000	97.161146  
2505.000000	97.184413  
2504.000000	97.181195  
2503.000000	97.158630  
2502.000000	97.143003  
2501.000000	97.143712  
2500.000000	97.145228  
2499.000000	97.131192  
2498.000000	97.103142  
2497.000000	97.075940  
2496.000000	97.062656  
2495.000000	97.063028  
2494.000000	97.062902  
2493.000000	97.049161  
2492.000000	97.027015  
2491.000000	97.014997  
2490.000000	97.020685  
2489.000000	97.031015  
2488.000000	97.030040  
2487.000000	97.015867  
2486.000000	96.996644  
2485.000000	96.982792  
2484.000000	96.987911  
2483.000000	97.021203  
2482.000000	97.068866  
2481.000000	97.097765  
2480.000000	97.092608  
2479.000000	97.079894  
2478.000000	97.099752  
2477.000000	97.159127  
2476.000000	97.224270  
2475.000000	97.255228  
2474.000000	97.238830  
2473.000000	97.194667  
2472.000000	97.159816  
2471.000000	97.162219  
2470.000000	97.197215  
2469.000000	97.231094  
2468.000000	97.234849  
2467.000000	97.212041  
2466.000000	97.189362  
2465.000000	97.186974  
2464.000000	97.203548  
2463.000000	97.221857  
2462.000000	97.221734  
2461.000000	97.196874  
2460.000000	97.167578  
2459.000000	97.166555  
2458.000000	97.200461  
2457.000000	97.234384  
2456.000000	97.229350  
2455.000000	97.190451  
2454.000000	97.163964  
2453.000000	97.188498  
2452.000000	97.258382  
2451.000000	97.330264  
2450.000000	97.355959  
2449.000000	97.316836  
2448.000000	97.242129  
2447.000000	97.191943  
2446.000000	97.207740  
2445.000000	97.275013  
2444.000000	97.339132  
2443.000000	97.355907  
2442.000000	97.322363  
2441.000000	97.268365  
2440.000000	97.232182  
2439.000000	97.238191  
2438.000000	97.280612  
2437.000000	97.326951  
2436.000000	97.349591  
2435.000000	97.354782  
2434.000000	97.370324  
2433.000000	97.406989  
2432.000000	97.445876  
2431.000000	97.464196  
2430.000000	97.459664  
2429.000000	97.446797  
2428.000000	97.441797  
2427.000000	97.455238  
2426.000000	97.487635  
2425.000000	97.525239  
2424.000000	97.548983  
2423.000000	97.554721  
2422.000000	97.558587  
2421.000000	97.576087  
2420.000000	97.600436  
2419.000000	97.608711  
2418.000000	97.588978  
2417.000000	97.557038  
2416.000000	97.543134  
2415.000000	97.560098  
2414.000000	97.585838  
2413.000000	97.583459  
2412.000000	97.542517  
2411.000000	97.494362  
2410.000000	97.480900  
2409.000000	97.513654  
2408.000000	97.570340  
2407.000000	97.623574  
2406.000000	97.658942  
2405.000000	97.669038  
2404.000000	97.650325  
2403.000000	97.615095  
2402.000000	97.594067  
2401.000000	97.613544  
2400.000000	97.670519  
2399.000000	97.734933  
2398.000000	97.774449  
2397.000000	97.775607  
2396.000000	97.747681  
2395.000000	97.713936  
2394.000000	97.697211  
2393.000000	97.705708  
2392.000000	97.728460  
2391.000000	97.746481  
2390.000000	97.751420  
2389.000000	97.754667  
2388.000000	97.778092  
2387.000000	97.834108  
2386.000000	97.912596  
2385.000000	97.986683  
2384.000000	98.032644  
2383.000000	98.045334  
2382.000000	98.035300  
2381.000000	98.013604  
2380.000000	97.981775  
2379.000000	97.935974  
2378.000000	97.877986  
2377.000000	97.820650  
2376.000000	97.782538  
2375.000000	97.772623  
2374.000000	97.779829  
2373.000000	97.787993  
2372.000000	97.809021  
2371.000000	97.886974  
2370.000000	98.042761  
2369.000000	98.216003  
2368.000000	98.297346  
2367.000000	98.237499  
2366.000000	98.098210  
2365.000000	97.977643  
2364.000000	97.915708  
2363.000000	97.892159  
2362.000000	97.878945  
2361.000000	97.877766  
2360.000000	97.918904  
2359.000000	98.014611  
2358.000000	98.125566  
2357.000000	98.176669  
2356.000000	98.133683  
2355.000000	98.036426  
2354.000000	97.939841  
2353.000000	97.882746  
2352.000000	97.878286  
2351.000000	97.918979  
2350.000000	97.975002  
2349.000000	98.008765  
2348.000000	98.010706  
2347.000000	97.995164  
2346.000000	97.990466  
2345.000000	98.000474  
2344.000000	98.025092  
2343.000000	98.079234  
2342.000000	98.129533  
2341.000000	98.122365  
2340.000000	98.040542  
2339.000000	97.926031  
2338.000000	97.833689  
2337.000000	97.797723  
2336.000000	97.816736  
2335.000000	97.856352  
2334.000000	97.872676  
2333.000000	97.861997  
2332.000000	97.862698  
2331.000000	97.907269  
2330.000000	97.990157  
2329.000000	98.081696  
2328.000000	98.177435  
2327.000000	98.256057  
2326.000000	98.280852  
2325.000000	98.222465  
2324.000000	98.112286  
2323.000000	98.025835  
2322.000000	98.007823  
2321.000000	98.051780  
2320.000000	98.119850  
2319.000000	98.178320  
2318.000000	98.194421  
2317.000000	98.151691  
2316.000000	98.070577  
2315.000000	97.997738  
2314.000000	97.974667  
2313.000000	98.013321  
2312.000000	98.111062  
2311.000000	98.244845  
2310.000000	98.367938  
2309.000000	98.422732  
2308.000000	98.395958  
2307.000000	98.328736  
2306.000000	98.276015  
2305.000000	98.253810  
2304.000000	98.242506  
2303.000000	98.218883  
2302.000000	98.178231  
2301.000000	98.130816  
2300.000000	98.095318  
2299.000000	98.083178  
2298.000000	98.086592  
2297.000000	98.078630  
2296.000000	98.043924  
2295.000000	97.992512  
2294.000000	97.947035  
2293.000000	97.915491  
2292.000000	97.893887  
2291.000000	97.876675  
2290.000000	97.857675  
2289.000000	97.826172  
2288.000000	97.779707  
2287.000000	97.732291  
2286.000000	97.696469  
2285.000000	97.665291  
2284.000000	97.627176  
2283.000000	97.591505  
2282.000000	97.576887  
2281.000000	97.579576  
2280.000000	97.576048  
2279.000000	97.561136  
2278.000000	97.557021  
2277.000000	97.577864  
2276.000000	97.605961  
2275.000000	97.615027  
2274.000000	97.600017  
2273.000000	97.572267  
2272.000000	97.541127  
2271.000000	97.513359  
2270.000000	97.500345  
2269.000000	97.509305  
2268.000000	97.531148  
2267.000000	97.547957  
2266.000000	97.551857  
2265.000000	97.548342  
2264.000000	97.541244  
2263.000000	97.519761  
2262.000000	97.468172  
2261.000000	97.391975  
2260.000000	97.329772  
2259.000000	97.325093  
2258.000000	97.377848  
2257.000000	97.436192  
2256.000000	97.449481  
2255.000000	97.423401  
2254.000000	97.405918  
2253.000000	97.427213  
2252.000000	97.473318  
2251.000000	97.513047  
2250.000000	97.527561  
2249.000000	97.513474  
2248.000000	97.482444  
2247.000000	97.463166  
2246.000000	97.481368  
2245.000000	97.525349  
2244.000000	97.550179  
2243.000000	97.529092  
2242.000000	97.487005  
2241.000000	97.469998  
2240.000000	97.493476  
2239.000000	97.534429  
2238.000000	97.564387  
2237.000000	97.574656  
2236.000000	97.575462  
2235.000000	97.583297  
2234.000000	97.605657  
2233.000000	97.630036  
2232.000000	97.634514  
2231.000000	97.616809  
2230.000000	97.601155  
2229.000000	97.603869  
2228.000000	97.605323  
2227.000000	97.577602  
2226.000000	97.533743  
2225.000000	97.523198  
2224.000000	97.571408  
2223.000000	97.643201  
2222.000000	97.677117  
2221.000000	97.645154  
2220.000000	97.570840  
2219.000000	97.498961  
2218.000000	97.457888  
2217.000000	97.442238  
2216.000000	97.421825  
2215.000000	97.374778  
2214.000000	97.319320  
2213.000000	97.301659  
2212.000000	97.339340  
2211.000000	97.388419  
2210.000000	97.389322  
2209.000000	97.343592  
2208.000000	97.320444  
2207.000000	97.379440  
2206.000000	97.506302  
2205.000000	97.632953  
2204.000000	97.701334  
2203.000000	97.693758  
2202.000000	97.623941  
2201.000000	97.530309  
2200.000000	97.470020  
2199.000000	97.486323  
2198.000000	97.568424  
2197.000000	97.654533  
2196.000000	97.684944  
2195.000000	97.650537  
2194.000000	97.591824  
2193.000000	97.559899  
2192.000000	97.573377  
2191.000000	97.599980  
2190.000000	97.581330  
2189.000000	97.489498  
2188.000000	97.359385  
2187.000000	97.255072  
2186.000000	97.210989  
2185.000000	97.218238  
2184.000000	97.256870  
2183.000000	97.314557  
2182.000000	97.371252  
2181.000000	97.396523  
2180.000000	97.379990  
2179.000000	97.346807  
2178.000000	97.329042  
2177.000000	97.331264  
2176.000000	97.331119  
2175.000000	97.305773  
2174.000000	97.253093  
2173.000000	97.193926  
2172.000000	97.154357  
2171.000000	97.138365  
2170.000000	97.121899  
2169.000000	97.085623  
2168.000000	97.046302  
2167.000000	97.033742  
2166.000000	97.040223  
2165.000000	97.024094  
2164.000000	96.972245  
2163.000000	96.928075  
2162.000000	96.941137  
2161.000000	97.011111  
2160.000000	97.094015  
2159.000000	97.142612  
2158.000000	97.130583  
2157.000000	97.069465  
2156.000000	97.017323  
2155.000000	97.037581  
2154.000000	97.126940  
2153.000000	97.202644  
2152.000000	97.183806  
2151.000000	97.073452  
2150.000000	96.946399  
2149.000000	96.876262  
2148.000000	96.888633  
2147.000000	96.960789  
2146.000000	97.034100  
2145.000000	97.038033  
2144.000000	96.942564  
2143.000000	96.796832  
2142.000000	96.697456  
2141.000000	96.707762  
2140.000000	96.809521  
2139.000000	96.929864  
2138.000000	97.001623  
2137.000000	96.998491  
2136.000000	96.933677  
2135.000000	96.843227  
2134.000000	96.769373  
2133.000000	96.741341  
2132.000000	96.756323  
2131.000000	96.780645  
2130.000000	96.780833  
2129.000000	96.758830  
2128.000000	96.748662  
2127.000000	96.771578  
2126.000000	96.804636  
2125.000000	96.806801  
2124.000000	96.769712  
2123.000000	96.724686  
2122.000000	96.700527  
2121.000000	96.693607  
2120.000000	96.684902  
2119.000000	96.669495  
2118.000000	96.658631  
2117.000000	96.665557  
2116.000000	96.700713  
2115.000000	96.768845  
2114.000000	96.855085  
2113.000000	96.921616  
2112.000000	96.937752  
2111.000000	96.914240  
2110.000000	96.893856  
2109.000000	96.905799  
2108.000000	96.940109  
2107.000000	96.969739  
2106.000000	96.985754  
2105.000000	97.002024  
2104.000000	97.031335  
2103.000000	97.067539  
2102.000000	97.093434  
2101.000000	97.100700  
2100.000000	97.098365  
2099.000000	97.104815  
2098.000000	97.135851  
2097.000000	97.194954  
2096.000000	97.264972  
2095.000000	97.310831  
2094.000000	97.304302  
2093.000000	97.253550  
2092.000000	97.199138  
2091.000000	97.174941  
2090.000000	97.181407  
2089.000000	97.200210  
2088.000000	97.220028  
2087.000000	97.235546  
2086.000000	97.236459  
2085.000000	97.221834  
2084.000000	97.219368  
2083.000000	97.263655  
2082.000000	97.350930  
2081.000000	97.435898  
2080.000000	97.480356  
2079.000000	97.486447  
2078.000000	97.476253  
2077.000000	97.461193  
2076.000000	97.443454  
2075.000000	97.428737  
2074.000000	97.420957  
2073.000000	97.416095  
2072.000000	97.414812  
2071.000000	97.431104  
2070.000000	97.474804  
2069.000000	97.531779  
2068.000000	97.573570  
2067.000000	97.583213  
2066.000000	97.565808  
2065.000000	97.541712  
2064.000000	97.535126  
2063.000000	97.559271  
2062.000000	97.601784  
2061.000000	97.627443  
2060.000000	97.604183  
2059.000000	97.528545  
2058.000000	97.428533  
2057.000000	97.348879  
2056.000000	97.329530  
2055.000000	97.383388  
2054.000000	97.487210  
2053.000000	97.601328  
2052.000000	97.702226  
2051.000000	97.788827  
2050.000000	97.859368  
2049.000000	97.898462  
2048.000000	97.894734  
2047.000000	97.860847  
2046.000000	97.829266  
2045.000000	97.830238  
2044.000000	97.864828  
2043.000000	97.891165  
2042.000000	97.854027  
2041.000000	97.750801  
2040.000000	97.651507  
2039.000000	97.622363  
2038.000000	97.646763  
2037.000000	97.662039  
2036.000000	97.666425  
2035.000000	97.730054  
2034.000000	97.877605  
2033.000000	98.016853  
2032.000000	98.033785  
2031.000000	97.925006  
2030.000000	97.790455  
2029.000000	97.721535  
2028.000000	97.733235  
2027.000000	97.791275  
2026.000000	97.862187  
2025.000000	97.924050  
2024.000000	97.954773  
2023.000000	97.934239  
2022.000000	97.866002  
2021.000000	97.791939  
2020.000000	97.769390  
2019.000000	97.821892  
2018.000000	97.916142  
2017.000000	97.992096  
2016.000000	98.011395  
2015.000000	97.973895  
2014.000000	97.908713  
2013.000000	97.865427  
2012.000000	97.883024  
2011.000000	97.937676  
2010.000000	97.943240  
2009.000000	97.842479  
2008.000000	97.687627  
2007.000000	97.587783  
2006.000000	97.585333  
2005.000000	97.628382  
2004.000000	97.654971  
2003.000000	97.656122  
2002.000000	97.657912  
2001.000000	97.683291  
2000.000000	97.739055  
1999.000000	97.810406  
1998.000000	97.862707  
1997.000000	97.872845  
1996.000000	97.856043  
1995.000000	97.836007  
1994.000000	97.798413  
1993.000000	97.711862  
1992.000000	97.594916  
1991.000000	97.514519  
1990.000000	97.502709  
1989.000000	97.519115  
1988.000000	97.513268  
1987.000000	97.490842  
1986.000000	97.498785  
1985.000000	97.564131  
1984.000000	97.664702  
1983.000000	97.748992  
1982.000000	97.775701  
1981.000000	97.745147  
1980.000000	97.697107  
1979.000000	97.667324  
1978.000000	97.654211  
1977.000000	97.642941  
1976.000000	97.636579  
1975.000000	97.632363  
1974.000000	97.598483  
1973.000000	97.521824  
1972.000000	97.452239  
1971.000000	97.447131  
1970.000000	97.491609  
1969.000000	97.524569  
1968.000000	97.529500  
1967.000000	97.541087  
1966.000000	97.564283  
1965.000000	97.555165  
1964.000000	97.493469  
1963.000000	97.414647  
1962.000000	97.356618  
1961.000000	97.320500  
1960.000000	97.297950  
1959.000000	97.298095  
1958.000000	97.329067  
1957.000000	97.380616  
1956.000000	97.433832  
1955.000000	97.464751  
1954.000000	97.443268  
1953.000000	97.365246  
1952.000000	97.282923  
1951.000000	97.265459  
1950.000000	97.325426  
1949.000000	97.413528  
1948.000000	97.485364  
1947.000000	97.534007  
1946.000000	97.557266  
1945.000000	97.544918  
1944.000000	97.513811  
1943.000000	97.510960  
1942.000000	97.554009  
1941.000000	97.603360  
1940.000000	97.616930  
1939.000000	97.595716  
1938.000000	97.561206  
1937.000000	97.524786  
1936.000000	97.493466  
1935.000000	97.476107  
1934.000000	97.466379  
1933.000000	97.444491  
1932.000000	97.409969  
1931.000000	97.389252  
1930.000000	97.395915  
1929.000000	97.407050  
1928.000000	97.399009  
1927.000000	97.380335  
1926.000000	97.374829  
1925.000000	97.389986  
1924.000000	97.416694  
1923.000000	97.445132  
1922.000000	97.466581  
1921.000000	97.478794  
1920.000000	97.498288  
1919.000000	97.545516  
1918.000000	97.603059  
1917.000000	97.618230  
1916.000000	97.569012  
1915.000000	97.493883  
1914.000000	97.444889  
1913.000000	97.436284  
1912.000000	97.443902  
1911.000000	97.439282  
1910.000000	97.409605  
1909.000000	97.360803  
1908.000000	97.320052  
1907.000000	97.318576  
1906.000000	97.360914  
1905.000000	97.415090  
1904.000000	97.441753  
1903.000000	97.428160  
1902.000000	97.385555  
1901.000000	97.332825  
1900.000000	97.291600  
1899.000000	97.278127  
1898.000000	97.290885  
1897.000000	97.314834  
1896.000000	97.341164  
1895.000000	97.370265  
1894.000000	97.391504  
1893.000000	97.385586  
1892.000000	97.354516  
1891.000000	97.326362  
1890.000000	97.319724  
1889.000000	97.322358  
1888.000000	97.317987  
1887.000000	97.310563  
1886.000000	97.307650  
1885.000000	97.302585  
1884.000000	97.287014  
1883.000000	97.266578  
1882.000000	97.250224  
1881.000000	97.239492  
1880.000000	97.239988  
1879.000000	97.262697  
1878.000000	97.303805  
1877.000000	97.340908  
1876.000000	97.360050  
1875.000000	97.372010  
1874.000000	97.390016  
1873.000000	97.407784  
1872.000000	97.411517  
1871.000000	97.395913  
1870.000000	97.358049  
1869.000000	97.298046  
1868.000000	97.239774  
1867.000000	97.217842  
1866.000000	97.232289  
1865.000000	97.246184  
1864.000000	97.229471  
1863.000000	97.188609  
1862.000000	97.150766  
1861.000000	97.132733  
1860.000000	97.135476  
1859.000000	97.153390  
1858.000000	97.172715  
1857.000000	97.172797  
1856.000000	97.145800  
1855.000000	97.106812  
1854.000000	97.075467  
1853.000000	97.055789  
1852.000000	97.042067  
1851.000000	97.025701  
1850.000000	96.993542  
1849.000000	96.939710  
1848.000000	96.882838  
1847.000000	96.856729  
1846.000000	96.876119  
1845.000000	96.918432  
1844.000000	96.946088  
1843.000000	96.942543  
1842.000000	96.906815  
1841.000000	96.845062  
1840.000000	96.783728  
1839.000000	96.751253  
1838.000000	96.745376  
1837.000000	96.737631  
1836.000000	96.715938  
1835.000000	96.699398  
1834.000000	96.700569  
1833.000000	96.704463  
1832.000000	96.693192  
1831.000000	96.661685  
1830.000000	96.605555  
1829.000000	96.526861  
1828.000000	96.449480  
1827.000000	96.404796  
1826.000000	96.398137  
1825.000000	96.393361  
1824.000000	96.354664  
1823.000000	96.291486  
1822.000000	96.230570  
1821.000000	96.176640  
1820.000000	96.124031  
1819.000000	96.080866  
1818.000000	96.055335  
1817.000000	96.025098  
1816.000000	95.955733  
1815.000000	95.846181  
1814.000000	95.724744  
1813.000000	95.613276  
1812.000000	95.512382  
1811.000000	95.416214  
1810.000000	95.324835  
1809.000000	95.237195  
1808.000000	95.150750  
1807.000000	95.064087  
1806.000000	94.968436  
1805.000000	94.849299  
1804.000000	94.705857  
1803.000000	94.556933  
1802.000000	94.414543  
1801.000000	94.269608  
1800.000000	94.111353  
1799.000000	93.943611  
1798.000000	93.767774  
1797.000000	93.569087  
1796.000000	93.339722  
1795.000000	93.094577  
1794.000000	92.853034  
1793.000000	92.621336  
1792.000000	92.403359  
1791.000000	92.207105  
1790.000000	92.020436  
1789.000000	91.817786  
1788.000000	91.600095  
1787.000000	91.394937  
1786.000000	91.218017  
1785.000000	91.048428  
1784.000000	90.853425  
1783.000000	90.622487  
1782.000000	90.354797  
1781.000000	90.048829  
1780.000000	89.715737  
1779.000000	89.370268  
1778.000000	88.994329  
1777.000000	88.538753  
1776.000000	87.983033  
1775.000000	87.357570  
1774.000000	86.699565  
1773.000000	86.019702  
1772.000000	85.337887  
1771.000000	84.691858  
1770.000000	84.063222  
1769.000000	83.371304  
1768.000000	82.563568  
1767.000000	81.675476  
1766.000000	80.776958  
1765.000000	79.879943  
1764.000000	78.936531  
1763.000000	77.916082  
1762.000000	76.876899  
1761.000000	75.930652  
1760.000000	75.106291  
1759.000000	74.313951  
1758.000000	73.432647  
1757.000000	72.410827  
1756.000000	71.319104  
1755.000000	70.264325  
1754.000000	69.278392  
1753.000000	68.335114  
1752.000000	67.417959  
1751.000000	66.533137  
1750.000000	65.672887  
1749.000000	64.806250  
1748.000000	63.927147  
1747.000000	63.070702  
1746.000000	62.272391  
1745.000000	61.547129  
1744.000000	60.898491  
1743.000000	60.324007  
1742.000000	59.817792  
1741.000000	59.392498  
1740.000000	59.106997  
1739.000000	59.034460  
1738.000000	59.201122  
1737.000000	59.646965  
1736.000000	60.522012  
1735.000000	61.992264  
1734.000000	63.777044  
1733.000000	65.200930  
1732.000000	65.975637  
1731.000000	66.277216  
1730.000000	66.363826  
1729.000000	66.450513  
1728.000000	66.641229  
1727.000000	66.934217  
1726.000000	67.309422  
1725.000000	67.781425  
1724.000000	68.342824  
1723.000000	68.932611  
1722.000000	69.508169  
1721.000000	70.102038  
1720.000000	70.791185  
1719.000000	71.643941  
1718.000000	72.676834  
1717.000000	73.819657  
1716.000000	74.965057  
1715.000000	76.066714  
1714.000000	77.148156  
1713.000000	78.238824  
1712.000000	79.338969  
1711.000000	80.434103  
1710.000000	81.508475  
1709.000000	82.548880  
1708.000000	83.561500  
1707.000000	84.569724  
1706.000000	85.557172  
1705.000000	86.428497  
1704.000000	87.112102  
1703.000000	87.651968  
1702.000000	88.170715  
1701.000000	88.772109  
1700.000000	89.397474  
1699.000000	89.912937  
1698.000000	90.295220  
1697.000000	90.609868  
1696.000000	90.910965  
1695.000000	91.176078  
1694.000000	91.349815  
1693.000000	91.427407  
1692.000000	91.463229  
1691.000000	91.510059  
1690.000000	91.569760  
1689.000000	91.617793  
1688.000000	91.654440  
1687.000000	91.693276  
1686.000000	91.731470  
1685.000000	91.735108  
1684.000000	91.692812  
1683.000000	91.656114  
1682.000000	91.614250  
1681.000000	91.528698  
1680.000000	91.434887  
1679.000000	91.373394  
1678.000000	91.338791  
1677.000000	91.301219  
1676.000000	91.244377  
1675.000000	91.174233  
1674.000000	91.097624  
1673.000000	91.009950  
1672.000000	90.913414  
1671.000000	90.823645  
1670.000000	90.741649  
1669.000000	90.665050  
1668.000000	90.608118  
1667.000000	90.566954  
1666.000000	90.518337  
1665.000000	90.451583  
1664.000000	90.374533  
1663.000000	90.301245  
1662.000000	90.233607  
1661.000000	90.166993  
1660.000000	90.106711  
1659.000000	90.062473  
1658.000000	90.027490  
1657.000000	89.991130  
1656.000000	89.960664  
1655.000000	89.951659  
1654.000000	89.947721  
1653.000000	89.925812  
1652.000000	89.955587  
1651.000000	90.018913  
1650.000000	90.031937  
1649.000000	90.014716  
1648.000000	90.012490  
1647.000000	90.053719  
1646.000000	90.137177  
1645.000000	90.225054  
1644.000000	90.282705  
1643.000000	90.319892  
1642.000000	90.358192  
1641.000000	90.401315  
1640.000000	90.450441  
1639.000000	90.512720  
1638.000000	90.591577  
1637.000000	90.680167  
1636.000000	90.775192  
1635.000000	90.889940  
1634.000000	91.016786  
1633.000000	91.116820  
1632.000000	91.187628  
1631.000000	91.262909  
1630.000000	91.355568  
1629.000000	91.453506  
1628.000000	91.551712  
1627.000000	91.663277  
1626.000000	91.792245  
1625.000000	91.929226  
1624.000000	92.067969  
1623.000000	92.203934  
1622.000000	92.324111  
1621.000000	92.413310  
1620.000000	92.477654  
1619.000000	92.546157  
1618.000000	92.645152  
1617.000000	92.771679  
1616.000000	92.910687  
1615.000000	93.045679  
1614.000000	93.153840  
1613.000000	93.234122  
1612.000000	93.306783  
1611.000000	93.384035  
1610.000000	93.462217  
1609.000000	93.540807  
1608.000000	93.630952  
1607.000000	93.734762  
1606.000000	93.832442  
1605.000000	93.908133  
1604.000000	93.970385  
1603.000000	94.033389  
1602.000000	94.097156  
1601.000000	94.154228  
1600.000000	94.204912  
1599.000000	94.252811  
1598.000000	94.294966  
1597.000000	94.328643  
1596.000000	94.359060  
1595.000000	94.391738  
1594.000000	94.422647  
1593.000000	94.446134  
1592.000000	94.465891  
1591.000000	94.488102  
1590.000000	94.511376  
1589.000000	94.533761  
1588.000000	94.561410  
1587.000000	94.597877  
1586.000000	94.632924  
1585.000000	94.653152  
1584.000000	94.662302  
1583.000000	94.672984  
1582.000000	94.687968  
1581.000000	94.701060  
1580.000000	94.708063  
1579.000000	94.707643  
1578.000000	94.700629  
1577.000000	94.697994  
1576.000000	94.720398  
1575.000000	94.769464  
1574.000000	94.801486  
1573.000000	94.787424  
1572.000000	94.749393  
1571.000000	94.716656  
1570.000000	94.696826  
1569.000000	94.694114  
1568.000000	94.712634  
1567.000000	94.727347  
1566.000000	94.709338  
1565.000000	94.660521  
1564.000000	94.613707  
1563.000000	94.594866  
1562.000000	94.607354  
1561.000000	94.641204  
1560.000000	94.697707  
1559.000000	94.732397  
1558.000000	94.745191  
1557.000000	94.750325  
1556.000000	94.718562  
1555.000000	94.680416  
1554.000000	94.657960  
1553.000000	94.637647  
1552.000000	94.614507  
1551.000000	94.593740  
1550.000000	94.574057  
1549.000000	94.545280  
1548.000000	94.513538  
1547.000000	94.495640  
1546.000000	94.491228  
1545.000000	94.479208  
1544.000000	94.447908  
1543.000000	94.407716  
1542.000000	94.365485  
1541.000000	94.305276  
1540.000000	94.226417  
1539.000000	94.182542  
1538.000000	94.174066  
1537.000000	94.146454  
1536.000000	94.101633  
1535.000000	94.068542  
1534.000000	94.037523  
1533.000000	93.990570  
1532.000000	93.941007  
1531.000000	93.898582  
1530.000000	93.856335  
1529.000000	93.809854  
1528.000000	93.765484  
1527.000000	93.732018  
1526.000000	93.696526  
1525.000000	93.635964  
1524.000000	93.551073  
1523.000000	93.466087  
1522.000000	93.398037  
1521.000000	93.350215  
1520.000000	93.314104  
1519.000000	93.262430  
1518.000000	93.180198  
1517.000000	93.080888  
1516.000000	92.990673  
1515.000000	92.917666  
1514.000000	92.838601  
1513.000000	92.737923  
1512.000000	92.624469  
1511.000000	92.513828  
1510.000000	92.408867  
1509.000000	92.290897  
1508.000000	92.125540  
1507.000000	91.870009  
1506.000000	91.557166  
1505.000000	91.253548  
1504.000000	90.947884  
1503.000000	90.605871  
1502.000000	90.197140  
1501.000000	89.687812  
1500.000000	89.071951  
1499.000000	88.356418  
1498.000000	87.510085  
1497.000000	86.497616  
1496.000000	85.402401  
1495.000000	84.393714  
1494.000000	83.554887  
1493.000000	82.877464  
1492.000000	82.345589  
1491.000000	81.944103  
1490.000000	81.638457  
1489.000000	81.379583  
1488.000000	81.117272  
1487.000000	80.812373  
1486.000000	80.454657  
1485.000000	80.064426  
1484.000000	79.668141  
1483.000000	79.266741  
1482.000000	78.855886  
1481.000000	78.468341  
1480.000000	78.157995  
1479.000000	77.951452  
1478.000000	77.847871  
1477.000000	77.843890  
1476.000000	77.927574  
1475.000000	78.071247  
1474.000000	78.243944  
1473.000000	78.419530  
1472.000000	78.564063  
1471.000000	78.640733  
1470.000000	78.638584  
1469.000000	78.583412  
1468.000000	78.510854  
1467.000000	78.434325  
1466.000000	78.345521  
1465.000000	78.246303  
1464.000000	78.162682  
1463.000000	78.106102  
1462.000000	78.063394  
1461.000000	78.032336  
1460.000000	78.016658  
1459.000000	77.983178  
1458.000000	77.851675  
1457.000000	77.635886  
1456.000000	77.523311  
1455.000000	77.618302  
1454.000000	77.851192  
1453.000000	78.125577  
1452.000000	78.355103  
1451.000000	78.495993  
1450.000000	78.580069  
1449.000000	78.671897  
1448.000000	78.795845  
1447.000000	78.922135  
1446.000000	79.011226  
1445.000000	79.047274  
1444.000000	79.031272  
1443.000000	78.971786  
1442.000000	78.891602  
1441.000000	78.823599  
1440.000000	78.789853  
1439.000000	78.780542  
1438.000000	78.757226  
1437.000000	78.688931  
1436.000000	78.610118  
1435.000000	78.589052  
1434.000000	78.650288  
1433.000000	78.777956  
1432.000000	78.931930  
1431.000000	79.055265  
1430.000000	79.108598  
1429.000000	79.091794  
1428.000000	79.027035  
1427.000000	78.936476  
1426.000000	78.831423  
1425.000000	78.717812  
1424.000000	78.606702  
1423.000000	78.513463  
1422.000000	78.447110  
1421.000000	78.406006  
1420.000000	78.384755  
1419.000000	78.381173  
1418.000000	78.401616  
1417.000000	78.452118  
1416.000000	78.541304  
1415.000000	78.681443  
1414.000000	78.867354  
1413.000000	79.071929  
1412.000000	79.263705  
1411.000000	79.427675  
1410.000000	79.573029  
1409.000000	79.717138  
1408.000000	79.864189  
1407.000000	80.006099  
1406.000000	80.131966  
1405.000000	80.232102  
1404.000000	80.299845  
1403.000000	80.337920  
1402.000000	80.358952  
1401.000000	80.369545  
1400.000000	80.362052  
1399.000000	80.330157  
1398.000000	80.278132  
1397.000000	80.200107  
1396.000000	80.073820  
1395.000000	79.887408  
1394.000000	79.648702  
1393.000000	79.357689  
1392.000000	78.997769  
1391.000000	78.564323  
1390.000000	78.062080  
1389.000000	77.468772  
1388.000000	76.744447  
1387.000000	75.901166  
1386.000000	75.004663  
1385.000000	74.083711  
1384.000000	73.116002  
1383.000000	72.104801  
1382.000000	71.105796  
1381.000000	70.174792  
1380.000000	69.339966  
1379.000000	68.627226  
1378.000000	68.051545  
1377.000000	67.582786  
1376.000000	67.173222  
1375.000000	66.814177  
1374.000000	66.519456  
1373.000000	66.273026  
1372.000000	66.060217  
1371.000000	65.917125  
1370.000000	65.851781  
1369.000000	65.736075  
1368.000000	65.411024  
1367.000000	64.957113  
1366.000000	64.732428  
1365.000000	65.060929  
1364.000000	65.919060  
1363.000000	66.946200  
1362.000000	67.806184  
1361.000000	68.468694  
1360.000000	69.038760  
1359.000000	69.493323  
1358.000000	69.727471  
1357.000000	69.743231  
1356.000000	69.676662  
1355.000000	69.663777  
1354.000000	69.760840  
1353.000000	69.985573  
1352.000000	70.351306  
1351.000000	70.844541  
1350.000000	71.425160  
1349.000000	72.071723  
1348.000000	72.790026  
1347.000000	73.569493  
1346.000000	74.370259  
1345.000000	75.159537  
1344.000000	75.927644  
1343.000000	76.667268  
1342.000000	77.370866  
1341.000000	78.048841  
1340.000000	78.714881  
1339.000000	79.348270  
1338.000000	79.907845  
1337.000000	80.385254  
1336.000000	80.806638  
1335.000000	81.188690  
1334.000000	81.527791  
1333.000000	81.825855  
1332.000000	82.095673  
1331.000000	82.341301  
1330.000000	82.558061  
1329.000000	82.750437  
1328.000000	82.927459  
1327.000000	83.085344  
1326.000000	83.217726  
1325.000000	83.337547  
1324.000000	83.464406  
1323.000000	83.595818  
1322.000000	83.716835  
1321.000000	83.833017  
1320.000000	83.965833  
1319.000000	84.115949  
1318.000000	84.259838  
1317.000000	84.387262  
1316.000000	84.515196  
1315.000000	84.659303  
1314.000000	84.815181  
1313.000000	84.973399  
1312.000000	85.133509  
1311.000000	85.296189  
1310.000000	85.456521  
1309.000000	85.610384  
1308.000000	85.756472  
1307.000000	85.891815  
1306.000000	86.015541  
1305.000000	86.135017  
1304.000000	86.256635  
1303.000000	86.373646  
1302.000000	86.474827  
1301.000000	86.560154  
1300.000000	86.635727  
1299.000000	86.699968  
1298.000000	86.748927  
1297.000000	86.788455  
1296.000000	86.825826  
1295.000000	86.854919  
1294.000000	86.865017  
1293.000000	86.858809  
1292.000000	86.846069  
1291.000000	86.824311  
1290.000000	86.780985  
1289.000000	86.710782  
1288.000000	86.616565  
1287.000000	86.499003  
1286.000000	86.361893  
1285.000000	86.223337  
1284.000000	86.104077  
1283.000000	86.005593  
1282.000000	85.914366  
1281.000000	85.825653  
1280.000000	85.746089  
1279.000000	85.672361  
1278.000000	85.585556  
1277.000000	85.471432  
1276.000000	85.332632  
1275.000000	85.177936  
1274.000000	85.012810  
1273.000000	84.843880  
1272.000000	84.679233  
1271.000000	84.517781  
1270.000000	84.348149  
1269.000000	84.164133  
1268.000000	83.973812  
1267.000000	83.789567  
1266.000000	83.616305  
1265.000000	83.452161  
1264.000000	83.293326  
1263.000000	83.134846  
1262.000000	82.972308  
1261.000000	82.804586  
1260.000000	82.631694  
1259.000000	82.453211  
1258.000000	82.275262  
1257.000000	82.113207  
1256.000000	81.975879  
1255.000000	81.850115  
1254.000000	81.712771  
1253.000000	81.555299  
1252.000000	81.383154  
1251.000000	81.195455  
1250.000000	80.983742  
1249.000000	80.749495  
1248.000000	80.501426  
1247.000000	80.229702  
1246.000000	79.900134  
1245.000000	79.479907  
1244.000000	78.953376  
1243.000000	78.307721  
1242.000000	77.522140  
1241.000000	76.583126  
1240.000000	75.498463  
1239.000000	74.287121  
1238.000000	72.968754  
1237.000000	71.576753  
1236.000000	70.170643  
1235.000000	68.816881  
1234.000000	67.561663  
1233.000000	66.437714  
1232.000000	65.487451  
1231.000000	64.756931  
1230.000000	64.274830  
1229.000000	64.056877  
1228.000000	64.114222  
1227.000000	64.433052  
1226.000000	64.966494  
1225.000000	65.660423  
1224.000000	66.422414  
1223.000000	66.998702  
1222.000000	66.946663  
1221.000000	65.889816  
1220.000000	63.903409  
1219.000000	61.634110  
1218.000000	59.956199  
1217.000000	59.429205  
1216.000000	60.014677  
1215.000000	61.213218  
1214.000000	62.427801  
1213.000000	63.270181  
1212.000000	63.645006  
1211.000000	63.647542  
1210.000000	63.424169  
1209.000000	63.102235  
1208.000000	62.785939  
1207.000000	62.559711  
1206.000000	62.479628  
1205.000000	62.575355  
1204.000000	62.860928  
1203.000000	63.331519  
1202.000000	63.958814  
1201.000000	64.709896  
1200.000000	65.567604  
1199.000000	66.520986  
1198.000000	67.546877  
1197.000000	68.614457  
1196.000000	69.697296  
1195.000000	70.770544  
1194.000000	71.810258  
1193.000000	72.806745  
1192.000000	73.766363  
1191.000000	74.691150  
1190.000000	75.567639  
1189.000000	76.381133  
1188.000000	77.127924  
1187.000000	77.807843  
1186.000000	78.417579  
1185.000000	78.957579  
1184.000000	79.435847  
1183.000000	79.860879  
1182.000000	80.238341  
1181.000000	80.575360  
1180.000000	80.880254  
1179.000000	81.159287  
1178.000000	81.421468  
1177.000000	81.681897  
1176.000000	81.948950  
1175.000000	82.212266  
1174.000000	82.457091  
1173.000000	82.687797  
1172.000000	82.923143  
1171.000000	83.171405  
1170.000000	83.425700  
1169.000000	83.681436  
1168.000000	83.940977  
1167.000000	84.200890  
1166.000000	84.451733  
1165.000000	84.692587  
1164.000000	84.931003  
1163.000000	85.167551  
1162.000000	85.394749  
1161.000000	85.611180  
1160.000000	85.821698  
1159.000000	86.024339  
1158.000000	86.213190  
1157.000000	86.393702  
1156.000000	86.577210  
1155.000000	86.758585  
1154.000000	86.916987  
1153.000000	87.042712  
1152.000000	87.147889  
1151.000000	87.246580  
1150.000000	87.337693  
1149.000000	87.410588  
1148.000000	87.454455  
1147.000000	87.459146  
1146.000000	87.420389  
1145.000000	87.349583  
1144.000000	87.268049  
1143.000000	87.185986  
1142.000000	87.093497  
1141.000000	86.975098  
1140.000000	86.827407  
1139.000000	86.663404  
1138.000000	86.507943  
1137.000000	86.388867  
1136.000000	86.322191  
1135.000000	86.302582  
1134.000000	86.315294  
1133.000000	86.357447  
1132.000000	86.437981  
1131.000000	86.557423  
1130.000000	86.700593  
1129.000000	86.851039  
1128.000000	86.999486  
1127.000000	87.135053  
1126.000000	87.241947  
1125.000000	87.311531  
1124.000000	87.349518  
1123.000000	87.367916  
1122.000000	87.376083  
1121.000000	87.378449  
1120.000000	87.371001  
1119.000000	87.339575  
1118.000000	87.272006  
1117.000000	87.173641  
1116.000000	87.062611  
1115.000000	86.950369  
1114.000000	86.835200  
1113.000000	86.711221  
1112.000000	86.569363  
1111.000000	86.388732  
1110.000000	86.142606  
1109.000000	85.819683  
1108.000000	85.429435  
1107.000000	84.981621  
1106.000000	84.467161  
1105.000000	83.859942  
1104.000000	83.127754  
1103.000000	82.240043  
1102.000000	81.177578  
1101.000000	79.940813  
1100.000000	78.540035  
1099.000000	76.971056  
1098.000000	75.210668  
1097.000000	73.247988  
1096.000000	71.115446  
1095.000000	68.879309  
1094.000000	66.609951  
1093.000000	64.379922  
1092.000000	62.276210  
1091.000000	60.371904  
1090.000000	58.678285  
1089.000000	57.160474  
1088.000000	55.808836  
1087.000000	54.665159  
1086.000000	53.780786  
1085.000000	53.188632  
1084.000000	52.916105  
1083.000000	52.979882  
1082.000000	53.359028  
1081.000000	54.006854  
1080.000000	54.887823  
1079.000000	55.970145  
1078.000000	57.192830  
1077.000000	58.479571  
1076.000000	59.779494  
1075.000000	61.062675  
1074.000000	62.287594  
1073.000000	63.406895  
1072.000000	64.396221  
1071.000000	65.247828  
1070.000000	65.943958  
1069.000000	66.464632  
1068.000000	66.817028  
1067.000000	67.030835  
1066.000000	67.123247  
1065.000000	67.087131  
1064.000000	66.912453  
1063.000000	66.601083  
1062.000000	66.161407  
1061.000000	65.606140  
1060.000000	64.955393  
1059.000000	64.224705  
1058.000000	63.410637  
1057.000000	62.506045  
1056.000000	61.528177  
1055.000000	60.511885  
1054.000000	59.475771  
1053.000000	58.418291  
1052.000000	57.349507  
1051.000000	56.297338  
1050.000000	55.274592  
1049.000000	54.273373  
1048.000000	53.300497  
1047.000000	52.382168  
1046.000000	51.528038  
1045.000000	50.723239  
1044.000000	49.956724  
1043.000000	49.230805  
1042.000000	48.548106  
1041.000000	47.918831  
1040.000000	47.378350  
1039.000000	46.967700  
1038.000000	46.697929  
1037.000000	46.561395  
1036.000000	46.571674  
1035.000000	46.760020  
1034.000000	47.138245  
1033.000000	47.695890  
1032.000000	48.423999  
1031.000000	49.308004  
1030.000000	50.307836  
1029.000000	51.379224  
1028.000000	52.505032  
1027.000000	53.676109  
1026.000000	54.856192  
1025.000000	55.999253  
1024.000000	57.090741  
1023.000000	58.141414  
1022.000000	59.150341  
1021.000000	60.102045  
1020.000000	60.992054  
1019.000000	61.830372  
1018.000000	62.627300  
1017.000000	63.396229  
1016.000000	64.158270  
1015.000000	64.919908  
1014.000000	65.654640  
1013.000000	66.328906  
1012.000000	66.938560  
1011.000000	67.501566  
1010.000000	68.027879  
1009.000000	68.522376  
1008.000000	69.011615  
1007.000000	69.542058  
1006.000000	70.148984  
1005.000000	70.841137  
1004.000000	71.610631  
1003.000000	72.440652  
1002.000000	73.308418  
1001.000000	74.198115  
1000.000000	75.108436  
999.000000	 76.034478  
998.000000	 76.947460  
997.000000	 77.806070  
996.000000	 78.585181  
995.000000	 79.284326  
994.000000	 79.913440  
993.000000	 80.481066  
992.000000	 80.994156  
991.000000	 81.459572  
990.000000	 81.883732  
989.000000	 82.273923  
988.000000	 82.638128  
987.000000	 82.979828  
986.000000	 83.294136  
985.000000	 83.571065  
984.000000	 83.801654  
983.000000	 83.982390  
982.000000	 84.118163  
981.000000	 84.219882  
980.000000	 84.293103  
979.000000	 84.328582  
978.000000	 84.309892  
977.000000	 84.231240  
976.000000	 84.102876  
975.000000	 83.941139  
974.000000	 83.762832  
973.000000	 83.590225  
972.000000	 83.447857  
971.000000	 83.341957  
970.000000	 83.244058  
969.000000	 83.098530  
968.000000	 82.839289  
967.000000	 82.394168  
966.000000	 81.686355  
965.000000	 80.654627  
964.000000	 79.288232  
963.000000	 77.649276  
962.000000	 75.864640  
961.000000	 74.095508  
960.000000	 72.500847  
959.000000	 71.198121  
958.000000	 70.230933  
957.000000	 69.569859  
956.000000	 69.146936  
955.000000	 68.892064  
954.000000	 68.760494  
953.000000	 68.761160  
952.000000	 68.967279  
951.000000	 69.479968  
950.000000	 70.366069  
949.000000	 71.622800  
948.000000	 73.178073  
947.000000	 74.901315  
946.000000	 76.631574  
945.000000	 78.234407  
944.000000	 79.645824  
943.000000	 80.859721  
942.000000	 81.883202  
941.000000	 82.714820  
940.000000	 83.357552  
939.000000	 83.834595  
938.000000	 84.183482  
937.000000	 84.435452  
936.000000	 84.601496  
935.000000	 84.677182  
934.000000	 84.659942  
933.000000	 84.560724  
932.000000	 84.398506  
931.000000	 84.186714  
930.000000	 83.930035  
929.000000	 83.634951  
928.000000	 83.318135  
927.000000	 83.000653  
926.000000	 82.696106  
925.000000	 82.407547  
924.000000	 82.133642  
923.000000	 81.874561  
922.000000	 81.635056  
921.000000	 81.425769  
920.000000	 81.258214  
919.000000	 81.134117  
918.000000	 81.043574  
917.000000	 80.978474  
916.000000	 80.942806  
915.000000	 80.944472  
914.000000	 80.983564  
913.000000	 81.055979  
912.000000	 81.160872  
911.000000	 81.292675  
910.000000	 81.429637  
909.000000	 81.542293  
908.000000	 81.613001  
907.000000	 81.638986  
906.000000	 81.617649  
905.000000	 81.537098  
904.000000	 81.381636  
903.000000	 81.141422  
902.000000	 80.816366  
901.000000	 80.411823  
900.000000	 79.926001  
899.000000	 79.338576  
898.000000	 78.618632  
897.000000	 77.751942  
896.000000	 76.755196  
895.000000	 75.654453  
894.000000	 74.455823  
893.000000	 73.152246  
892.000000	 71.756792  
891.000000	 70.310366  
890.000000	 68.854389  
889.000000	 67.418565  
888.000000	 66.044865  
887.000000	 64.799676  
886.000000	 63.742800  
885.000000	 62.897998  
884.000000	 62.268351  
883.000000	 61.866691  
882.000000	 61.717617  
881.000000	 61.839160  
880.000000	 62.227381  
879.000000	 62.845540  
878.000000	 63.625694  
877.000000	 64.490971  
876.000000	 65.368713  
875.000000	 66.172985  
874.000000	 66.799292  
873.000000	 67.165898  
872.000000	 67.252053  
871.000000	 67.080050  
870.000000	 66.677798  
869.000000	 66.081701  
868.000000	 65.360797  
867.000000	 64.605949  
866.000000	 63.893503  
865.000000	 63.278807  
864.000000	 62.818791  
863.000000	 62.570357  
862.000000	 62.561584  
861.000000	 62.787582  
860.000000	 63.235108  
859.000000	 63.887583  
858.000000	 64.709760  
857.000000	 65.657494  
856.000000	 66.705730  
855.000000	 67.843410  
854.000000	 69.040498  
853.000000	 70.243545  
852.000000	 71.407154  
851.000000	 72.512545  
850.000000	 73.554557  
849.000000	 74.526597  
848.000000	 75.420570  
847.000000	 76.229606  
846.000000	 76.949566  
845.000000	 77.586437  
844.000000	 78.160457  
843.000000	 78.692836  
842.000000	 79.187231  
841.000000	 79.629388  
840.000000	 80.003429  
839.000000	 80.305521  
838.000000	 80.547313  
837.000000	 80.751907  
836.000000	 80.940736  
835.000000	 81.115972  
834.000000	 81.259598  
833.000000	 81.357642  
832.000000	 81.420991  
831.000000	 81.473537  
830.000000	 81.524151  
829.000000	 81.562336  
828.000000	 81.581006  
827.000000	 81.590498  
826.000000	 81.606039  
825.000000	 81.631024  
824.000000	 81.656218  
823.000000	 81.667381  
822.000000	 81.652357  
821.000000	 81.607841  
820.000000	 81.539571  
819.000000	 81.454463  
818.000000	 81.358275  
817.000000	 81.262818  
816.000000	 81.184820  
815.000000	 81.128332  
814.000000	 81.073835  
813.000000	 80.994535  
812.000000	 80.881255  
811.000000	 80.746109  
810.000000	 80.608272  
809.000000	 80.482936  
808.000000	 80.375406  
807.000000	 80.274968  
806.000000	 80.160872  
805.000000	 80.024474  
804.000000	 79.878967  
803.000000	 79.738448  
802.000000	 79.597871  
801.000000	 79.446612  
800.000000	 79.291630  
799.000000	 79.150812  
798.000000	 79.029800  
797.000000	 78.920041  
796.000000	 78.811932  
795.000000	 78.693908  
794.000000	 78.547899  
793.000000	 78.366396  
792.000000	 78.169437  
791.000000	 77.985806  
790.000000	 77.819881  
789.000000	 77.651789  
788.000000	 77.462730  
787.000000	 77.242470  
786.000000	 76.983156  
785.000000	 76.691777  
784.000000	 76.403449  
783.000000	 76.154335  
782.000000	 75.939942  
781.000000	 75.723589  
780.000000	 75.486038  
779.000000	 75.243269  
778.000000	 75.016642  
777.000000	 74.812081  
776.000000	 74.630216  
775.000000	 74.469646  
774.000000	 74.315320  
773.000000	 74.149048  
772.000000	 73.977031  
771.000000	 73.823531  
770.000000	 73.693949  
769.000000	 73.569926  
768.000000	 73.444331  
767.000000	 73.331833  
766.000000	 73.238106  
765.000000	 73.149050  
764.000000	 73.061860  
763.000000	 72.997154  
762.000000	 72.963422  
761.000000	 72.933871  
760.000000	 72.876499  
759.000000	 72.787866  
758.000000	 72.682543  
757.000000	 72.569862  
756.000000	 72.458061  
755.000000	 72.362677  
754.000000	 72.290483  
753.000000	 72.225507  
752.000000	 72.145215  
751.000000	 72.042366  
750.000000	 71.924135  
749.000000	 71.803493  
748.000000	 71.699312  
747.000000	 71.627328  
746.000000	 71.576641  
745.000000	 71.508792  
744.000000	 71.394251  
743.000000	 71.240258  
742.000000	 71.074582  
741.000000	 70.914683  
740.000000	 70.762163  
739.000000	 70.614890  
738.000000	 70.472074  
737.000000	 70.333371  
736.000000	 70.200656  
735.000000	 70.076858  
734.000000	 69.961786  
733.000000	 69.854711  
732.000000	 69.757366  
731.000000	 69.664706  
730.000000	 69.559658  
729.000000	 69.431607  
728.000000	 69.290140  
727.000000	 69.143160  
726.000000	 68.973971  
725.000000	 68.765475  
724.000000	 68.540858  
723.000000	 68.350860  
722.000000	 68.220045  
721.000000	 68.127196  
720.000000	 68.039301  
719.000000	 67.943880  
718.000000	 67.839612  
717.000000	 67.721916  
716.000000	 67.593751  
715.000000	 67.467066  
714.000000	 67.341793  
713.000000	 67.203958  
712.000000	 67.054775  
711.000000	 66.922969  
710.000000	 66.835856  
709.000000	 66.791097  
708.000000	 66.762153  
707.000000	 66.718977  
706.000000	 66.644006  
705.000000	 66.539638  
704.000000	 66.421637  
703.000000	 66.299270  
702.000000	 66.164730  
701.000000	 66.011534  
700.000000	 65.851451  
699.000000	 65.693994  
698.000000	 65.527913  
697.000000	 65.346820  
696.000000	 65.176731  
695.000000	 65.047030  
694.000000	 64.942837  
693.000000	 64.829136  
692.000000	 64.714495  
691.000000	 64.638647  
690.000000	 64.596825  
689.000000	 64.523410  
688.000000	 64.370548  
687.000000	 64.165915  
686.000000	 63.966016  
685.000000	 63.794789  
684.000000	 63.646413  
683.000000	 63.503143  
682.000000	 63.340455  
681.000000	 63.150453  
680.000000	 62.968233  
679.000000	 62.837349  
678.000000	 62.755374  
677.000000	 62.685382  
676.000000	 62.600439  
675.000000	 62.499209  
674.000000	 62.372910  
673.000000	 62.202008  
672.000000	 61.979805  
671.000000	 61.686747  
670.000000	 61.273798  
669.000000	 60.736400  
668.000000	 60.399190  
667.000000	 60.623436  
666.000000	 61.057105  
665.000000	 61.293156  
664.000000	 61.302648  
663.000000	 61.165649  
662.000000	 60.952558  
661.000000	 60.700813  
660.000000	 60.430785  
659.000000	 60.209530  
658.000000	 60.021431  
657.000000	 59.917313  
656.000000	 59.714000  
655.000000	 60.182250  
654.000000	 60.138191  
653.000000	 59.907186  
652.000000	 59.763237  
651.000000	 59.626026  
650.000000	 59.505634  

